# timestamp wx wy wz ax ay az
1455210114005812992 -0.0117382034154356 0.0116284039468527 0.0095750707937269 -0.0090112700219154 0.3576206113532067 -0.0129565776732445
1455210114025629440 -0.0106493353826625 0.0109526081781175 0.0095744569350956 -0.0109832691830635 0.3573500104515075 -0.0102275057605743
1455210114036406016 -0.0099629721907219 0.0092356469180547 0.0092296548056020 -0.0130176485202789 0.3605150328180313 -0.0134470149195671
1455210114052529664 -0.0089364061484901 0.0072671580825172 0.0087900334886572 -0.0073375360144615 0.3574858252816200 -0.0180228580237389
1455210114067955456 -0.0084304548098552 0.0069848257227135 0.0072212891274822 -0.0120406084912300 0.3577599800764084 -0.0153622266100883
1455210114084186880 -0.0068007933019058 0.0061354477772880 0.0065752288838982 -0.0121510784522057 0.3575479435918807 -0.0155391169624329
1455210114099874304 -0.0044238128394053 0.0061728878274729 0.0054714751122122 -0.0067024927288055 0.3565640015283585 -0.0124194160851479
1455210114116025344 -0.0029423788829881 0.0061527956086288 0.0039981105338978 -0.0117264256374359 0.3522777071874618 -0.0169690913133621
1455210114132239616 -0.0008307145125062 0.0056849487788707 0.0028157389152521 -0.0177464586648941 0.3604370342170715 -0.0174266456962585
1455210114148140800 0.0000509902138112 0.0049802657017914 0.0014119161309024 -0.0129362082544327 0.3587127975183487 -0.0152403841912270
1455210114164677120 0.0001278423849682 0.0041441875828497 -0.0007149602157259 -0.0111668932275772 0.3620350141876220 -0.0089098905453682
1455210114181494016 0.0013929517607800 0.0026959765610312 -0.0021555186441521 -0.0181013990610123 0.3585318669507027 -0.0118287403490067
1455210114195902464 0.0013565823013533 0.0013771472312909 -0.0038013322241129 -0.0163718689320564 0.3605752806582451 -0.0095142394175529
1455210114212885248 0.0016539974739906 0.0005351049630880 -0.0060461333438100 -0.0189646771018028 0.3691260035451889 -0.0099131171550751
1455210114227810304 0.0018774793000257 -0.0005530360267075 -0.0074273845063407 -0.0193742913373947 0.3655254048188210 -0.0109004634740829
1455210114244092928 0.0026735394288473 -0.0014019865347780 -0.0083915060789128 -0.0244884744257927 0.3612094822323799 -0.0099560070332527
1455210114259915520 0.0040117339344541 -0.0014872409791742 -0.0096776104851782 -0.0212396362964630 0.3579822293273925 -0.0106227734909058
1455210114275869952 0.0055649081243160 -0.0013438177702485 -0.0106464365318160 -0.0186355678970337 0.3561914600090980 -0.0068120461594582
1455210114292529152 0.0070171192140918 -0.0012714516939478 -0.0118136534322786 -0.0181879270053864 0.3614183950319290 -0.0107586631398201
1455210114307929088 0.0082793723496345 -0.0011449355632025 -0.0131948713052957 -0.0168190609108925 0.3568659702127456 -0.0055862149094582
1455210114323797760 0.0087984251092520 -0.0011006498574356 -0.0148840677794139 -0.0254917758543015 0.3601019020987510 -0.0078204352664948
1455210114339833088 0.0097861289732768 -0.0016968717043798 -0.0155606944544092 -0.0184275716278076 0.3559826407330512 -0.0051463364685059
1455210114356108032 0.0101532590453497 -0.0025947511395778 -0.0154490427572882 -0.0243214227458954 0.3629486265773773 -0.0095152120619774
1455210114375303936 0.0108945752348036 -0.0031357550044803 -0.0148131211679742 -0.0214073987549782 0.3561224209596634 -0.0086584619616508
1455210114387973888 0.0121702387180153 -0.0040004021840158 -0.0134243079595282 -0.0211145205550194 0.3614331343358994 -0.0075823057248116
1455210114403967488 0.0125885081409205 -0.0050140332528331 -0.0111919251599942 -0.0205475436743736 0.3534145975867271 -0.0076028808953285
1455210114420756992 0.0133969626214553 -0.0069753035902359 -0.0091001106606973 -0.0236703682366371 0.3575157902117729 -0.0135297645144463
1455210114435902208 0.0140064643211752 -0.0084139099215831 -0.0061058547312550 -0.0257161013270378 0.3613368051284790 -0.0106147117650032
1455210114452957952 0.0138660438263786 -0.0097035044004571 -0.0036460020219535 -0.0230379623137474 0.3544793252515793 -0.0091591493838310
1455210114468726784 0.0136411425354825 -0.0109908911187874 -0.0007436464554077 -0.0211480580829620 0.3545943965688705 -0.0129420815303802
1455210114484117248 0.0130347727132045 -0.0125329905532561 0.0021353292199283 -0.0219807352337837 0.3525169028970718 -0.0099937718235016
1455210114500404224 0.0127508730830993 -0.0142252842837221 0.0050213875721833 -0.0130008891086578 0.3537040715312004 -0.0114157031532288
1455210114515960576 0.0123028108770795 -0.0149153159800643 0.0076071172535685 -0.0230854348435402 0.3537604474984168 -0.0122020861703873
1455210114531839744 0.0115441828089595 -0.0169268428303981 0.0097019784091525 -0.0186154229346275 0.3556294772834777 -0.0134189017547607
1455210114548413696 0.0094338806453753 -0.0181421684043725 0.0110164947495074 -0.0070870239610672 0.3452311789029121 -0.0103482446021080
1455210114564197376 0.0076419833585598 -0.0190344631907646 0.0117685274991878 -0.0164993601704597 0.3576638379159927 -0.0111609264281273
1455210114581741824 0.0066896183106198 -0.0192381683825448 0.0123618811216380 -0.0142146184174538 0.3574951028130531 -0.0118056774533272
1455210114595898112 0.0056454021682636 -0.0198032818447958 0.0122404010285140 -0.0100115599936485 0.3551035198109627 -0.0088871269248962
1455210114612827392 0.0035214286672234 -0.0202735082089878 0.0122811713616420 -0.0087672297948837 0.3591625333364487 -0.0083075056667328
1455210114627952384 0.0017195125683871 -0.0208613743880119 0.0115892328419593 -0.0100287309086800 0.3594748270154953 -0.0111402016200066
1455210114644167424 0.0000187699593629 -0.0210575694655180 0.0110166279075619 -0.0094125980751991 0.3653578855214119 -0.0078294135227203
1455210114664900608 -0.0013919943543681 -0.0207840321952143 0.0110403540097134 -0.0098936268571854 0.3614460779886245 -0.0093973537443161
1455210114676430080 -0.0028017639774319 -0.0208665941837484 0.0103769512611109 -0.0108536643135071 0.3568016821572303 -0.0115326449405670
1455210114691837440 -0.0046546662953378 -0.0208808540798053 0.0093697863474203 -0.0092462758786201 0.3618476492030143 -0.0113823713769913
1455210114708478464 -0.0058113104462728 -0.0204895491629372 0.0079599528084904 -0.0054584056911469 0.3588505576373101 -0.0103818195394516
1455210114724247552 -0.0075713842896424 -0.0197307759525378 0.0063823321314021 -0.0038749966822624 0.3533670315334320 -0.0083435309198380
1455210114741064704 -0.0086691246435870 -0.0193783438665211 0.0044358769591434 -0.0083369468652725 0.3622792227569580 -0.0072732292542458
1455210114756025344 -0.0093366126813018 -0.0181043448589906 0.0028569140488658 -0.0117887309947014 0.3546053201139450 -0.0076565446809769
1455210114772008448 -0.0089226922004567 -0.0164054345047964 0.0008322911038716 -0.0007075614093781 0.3482964116924286 -0.0087497596046448
1455210114788696832 -0.0091548759053537 -0.0154554063807129 -0.0005842496062638 -0.0050185459548950 0.3533104685192108 -0.0072672811594963
1455210114804053760 -0.0086351959712994 -0.0138468051506638 -0.0024613587268979 -0.0065606549851418 0.3546956077031135 -0.0058403556747437
1455210114819906816 -0.0081068234794472 -0.0119109746595739 -0.0037970791558521 -0.0058235588537216 0.3554364073652267 -0.0098031335163116
1455210114836372480 -0.0067332648577252 -0.0098013942126451 -0.0050602524135514 -0.0064550108368874 0.3467220744632721 -0.0047707647877693
1455210114852052224 -0.0061218616609869 -0.0079960519570664 -0.0071276656993604 -0.0070371198202133 0.3512010646284103 -0.0083683333526611
1455210114868071168 -0.0055157661443013 -0.0059722213024965 -0.0094194982439083 -0.0032381577453613 0.3615599709097862 -0.0067975126071930
1455210114884049920 -0.0052420650895905 -0.0044107513658390 -0.0114437856306052 -0.0177032882162094 0.3628557390348434 -0.0073056445001602
1455210114900137728 -0.0058459661615380 -0.0033493325344214 -0.0134221707727534 -0.0092902319247246 0.3560545977157593 -0.0055292216871262
1455210114917076224 -0.0051298341549324 -0.0017901875373956 -0.0150319850726791 -0.0134769985544205 0.3536267275947571 -0.0075695304143906
1455210114931788544 -0.0045623771109222 -0.0003378193211155 -0.0164709256307430 -0.0076580971711159 0.3524356870876312 -0.0049301475404739
1455210114948430592 -0.0046276418681762 0.0010613762208402 -0.0170294104850408 -0.0197625635097504 0.3614472376800537 -0.0076780550865173
1455210114964050176 -0.0049957479887886 0.0021468939969619 -0.0181739958425600 -0.0145072534563065 0.3506203397929191 -0.0058243631558418
1455210114979869696 -0.0045392129357607 0.0029720571501759 -0.0188909787291338 -0.0127821002272606 0.3527889814701080 -0.0117086561719894
1455210114995872256 -0.0053770101251860 0.0034522304210394 -0.0194445527143815 -0.0046245501441956 0.3529795823678970 -0.0138211837477684
1455210115011996928 -0.0064251331248614 0.0032791888660504 -0.0195066536362605 -0.0117280903557777 0.3540486495232582 -0.0157727012619019
1455210115029670656 -0.0084100643169690 0.0028678396672378 -0.0199573923191759 -0.0127673235138893 0.3575661806748390 -0.0139376018034935
1455210115044145664 -0.0111405461246638 0.0022841320142559 -0.0207502167072731 -0.0112160865898132 0.3628307869644165 -0.0146234470556259
1455210115060468736 -0.0136198359151813 0.0020557979087147 -0.0215815863574074 -0.0096621374841690 0.3638002889991760 -0.0108484082926750
1455210115077389312 -0.0147917972371259 0.0023350729595869 -0.0223305591349953 -0.0089149595191956 0.3600750795582771 -0.0118752963484764
1455210115092744704 -0.0155444105559239 0.0026204040387780 -0.0214735831909798 -0.0083029230151176 0.3497428648844719 -0.0143815204597473
1455210115108646912 -0.0158706397999754 0.0027122271700029 -0.0205670950875581 -0.0036077626266479 0.3451518148588181 -0.0146860142786980
1455210115124018432 -0.0166048133913857 0.0026487706991290 -0.0193767512961892 -0.0115287543628693 0.3531821916833877 -0.0130808142937660
1455210115139914752 -0.0176942486774709 0.0018767575833703 -0.0174742049924031 -0.0136737720033646 0.3523221121463775 -0.0155723739198685
1455210115156992512 -0.0184118241173873 0.0010930452009429 -0.0153532821423917 -0.0089932948047638 0.3487203163191795 -0.0170763066564560
1455210115172234496 -0.0198204951865015 0.0001327212960852 -0.0128091470424919 -0.0042978538457870 0.3551360285803795 -0.0159391730960846
1455210115188122368 -0.0207983799755871 -0.0009716942711318 -0.0108946817612472 -0.0076895771820068 0.3545056053557396 -0.0158757641614914
1455210115204160768 -0.0213122888395592 -0.0010155352289966 -0.0096340664697749 -0.0114459112444878 0.3615915257394791 -0.0121084504398346
1455210115219741184 -0.0214824834753429 -0.0005414046706466 -0.0082091940601693 -0.0109692032483101 0.3570106884802818 -0.0116009170972824
1455210115235990528 -0.0216593173717241 -0.0002151288212761 -0.0069464602240498 -0.0121828390336037 0.3629720074529648 -0.0128433955307007
1455210115251825408 -0.0209602242697729 0.0010987989604780 -0.0045038075406486 -0.0043154549689293 0.3580851051799774 -0.0143611697456360
1455210115267896064 -0.0199499687576373 0.0020793229422039 -0.0032759477990037 -0.0050252235329628 0.3559606814146996 -0.0120482213043213
1455210115283992832 -0.0191454957029322 0.0037681772001220 -0.0029367209972522 -0.0048798131915092 0.3604703472886086 -0.0115590372729301
1455210115299774208 -0.0190029832950993 0.0056538177573082 -0.0027238705102887 -0.0113887683845520 0.3684468732805252 -0.0119815390471458
1455210115317094144 -0.0190271048766727 0.0066124838443873 -0.0031414754745018 -0.0041914428048134 0.3696328635185242 -0.0140930939785004
1455210115331759104 -0.0199134275243203 0.0075864524550900 -0.0037962069705951 -0.0005386953735352 0.3652289353163719 -0.0124775502942085
1455210115347801344 -0.0213562469765120 0.0087430420112227 -0.0039123114730587 0.0018359411699295 0.3670232772324561 -0.0134351748441696
1455210115364164608 -0.0218376639436046 0.0090847016106301 -0.0037331126896295 -0.0022657564820290 0.3680352015278816 -0.0143509008650780
1455210115379949312 -0.0228598078068462 0.0086374476740011 -0.0022697642601749 0.0010491653540611 0.3621460826990127 -0.0174178170776367
1455210115396505856 -0.0246451750226688 0.0086478073706415 -0.0014666973545253 -0.0050837505407333 0.3721626368476867 -0.0137104519209862
1455210115411902464 -0.0256444117057942 0.0088054159071135 -0.0014574788224120 0.0007175871288300 0.3741021272394180 -0.0167920139140129
1455210115427858176 -0.0260931916337278 0.0087282255144981 -0.0014375730248442 -0.0006487538311005 0.3700666442271232 -0.0174431245373726
1455210115444134912 -0.0272116340704062 0.0086764496681653 -0.0011055913528382 0.0003250689894676 0.3678157766866684 -0.0180175458888054
1455210115460877824 -0.0277935387633301 0.0086838292875459 -0.0009718540607972 -0.0029680992799759 0.3692265226055145 -0.0175977562961578
1455210115475845632 -0.0279192745878761 0.0082010075029783 -0.0008094385185576 -0.0010192752427101 0.3678200974724770 -0.0213807258521080
1455210115492002048 -0.0278321838939083 0.0086300866967481 -0.0009953085205175 0.0040307881324768 0.3627215515136719 -0.0193411279034615
1455210115509277696 -0.0269313843025750 0.0083109893980959 -0.0006841101576585 -0.0008097825974464 0.3616730221194267 -0.0158164515563011
1455210115524299776 -0.0258348077500267 0.0084813771130586 -0.0004386212999555 -0.0065747209198952 0.3640713575183868 -0.0158278801282883
1455210115539975168 -0.0231542642075125 0.0092682759677303 -0.0006405701369968 -0.0050296191375732 0.3669052505724907 -0.0109775642494202
1455210115556043264 -0.0197815664292673 0.0104149172856110 -0.0002973139725159 -0.0005700444515228 0.3582447497984886 -0.0119218897573471
1455210115574279680 -0.0159997298759142 0.0124147808219508 -0.0003402108397744 -0.0072191165557861 0.3605617197504044 -0.0108073327704430
1455210115588891904 -0.0133986790287778 0.0130697227077701 -0.0009621867860402 -0.0066675710530281 0.3631315772526741 -0.0109230587522507
1455210115611501056 -0.0103971446800764 0.0140082752707164 -0.0015149937808939 -0.0085509473433495 0.3618744343340874 -0.0108399537680626
1455210115621733120 -0.0080430061502456 0.0140678848053957 -0.0008063439253709 -0.0044206876137733 0.3606645768982887 -0.0134562550415993
1455210115635950336 -0.0060797517578306 0.0135729709378986 -0.0007405065884825 -0.0088546929742813 0.3643564545629501 -0.0120227829116821
1455210115653718016 -0.0034050738276173 0.0136890514719124 -0.0009433262792002 -0.0075916393703461 0.3664084724327087 -0.0133388643414497
1455210115667716864 -0.0017456807892582 0.0127319153708796 -0.0011614751251524 -0.0047098622830391 0.3640503708444595 -0.0158037884740829
1455210115684616448 -0.0010382599825783 0.0118480375051126 -0.0018311988866023 -0.0074462664382935 0.3696589378709793 -0.0117939870155334
1455210115703488512 -0.0001471676134183 0.0105769719695229 -0.0023105718775582 -0.0070583309505463 0.3672149817075729 -0.0175115650363922
1455210115716154624 0.0005487416794497 0.0090123102342990 -0.0029799441017442 -0.0058903159296989 0.3636933916359901 -0.0200329773644447
1455210115734598912 0.0015018857020086 0.0080323921217211 -0.0034525446740480 -0.0019791630614281 0.3614779320935249 -0.0151446722389221
1455210115747790592 0.0021364956844857 0.0070993309969425 -0.0038911100476206 -0.0091349642061234 0.3619042870360374 -0.0166463978208542
1455210115764567808 0.0030569826941774 0.0062271404136194 -0.0043103635085485 0.0055832969761848 0.3590096785242080 -0.0176370548718452
1455210115779839488 0.0029353095218744 0.0055490210368331 -0.0039365142810454 -0.0073508724658966 0.3666059192508697 -0.0154274124912262
1455210115796249088 0.0035900516706121 0.0048564340374249 -0.0046546583058545 -0.0119177747232437 0.3687822859693527 -0.0158530753598213
1455210115812626432 0.0043125859164782 0.0038112112201766 -0.0052797221874043 -0.0079746742265701 0.3652825616926193 -0.0180375599183083
1455210115827721216 0.0040986528545316 0.0029969736853347 -0.0054543097074060 -0.0000542810407639 0.3642240252836227 -0.0154914947950363
1455210115843799808 0.0043546212511240 0.0023268850708155 -0.0055405854740803 -0.0080913354434013 0.3637618134303092 -0.0170004965054512
1455210115862201600 0.0048246505413953 0.0012855304950505 -0.0049340052620762 -0.0048633904644966 0.3657339248196602 -0.0172586400766373
1455210115875894272 0.0045265642521633 0.0009300584106495 -0.0044714661123707 -0.0057133694632530 0.3627615982773781 -0.0220289372468948
1455210115892711168 0.0042658900499247 0.0000875221260644 -0.0043801729502028 0.0003216647339821 0.3597927133999824 -0.0221798654749870
1455210115907901440 0.0035046693944836 -0.0002328827846831 -0.0046552561855192 0.0114418336197853 0.3561775624166489 -0.0236657855850220
1455210115923943168 0.0032108015524182 -0.0008172269331655 -0.0046304927821231 0.0120823012685776 0.3556591055290222 -0.0229551379000664
1455210115939912960 0.0025376769342563 -0.0004730080359506 -0.0042906854112539 0.0107287356190681 0.3593433890852928 -0.0223972140944481
1455210115956504576 0.0022300778336106 0.0002760339838256 -0.0041993376542836 0.0206480066205978 0.3545564073222160 -0.0226973123087883
1455210115971781888 0.0036220175931763 0.0013393902649363 -0.0019844518231115 0.0270517852828979 0.3407135822360038 -0.0272741280573845
1455210115987899904 0.0046615865194303 0.0023631240353487 -0.0002984937528788 0.0245393699157715 0.3394824762604713 -0.0322780282318115
1455210116004863744 0.0045365737431204 0.0027347814812747 0.0021717399583518 0.0279777240702629 0.3459764302837371 -0.0377550076905251
1455210116019856128 0.0039833020266564 0.0028227430289190 0.0045798727477034 0.0295127253143311 0.3405392731323242 -0.0407535395181656
1455210116035927808 0.0028344383008460 0.0032602830854719 0.0068720288663237 0.0241318506066322 0.3513020138968467 -0.0363404647174835
1455210116052312576 0.0021428060446887 0.0030467415082055 0.0094234596960298 0.0213669966019630 0.3504639123828888 -0.0362639811972618
1455210116067966208 0.0010615533210527 0.0026653368926898 0.0128646300090621 0.0264690029303551 0.3472562432992935 -0.0292877825864792
1455210116084124672 -0.0003238710149062 0.0018271215869734 0.0162210412256609 0.0235088718527794 0.3431733064619064 -0.0327917154208183
1455210116100252672 -0.0022738961546062 0.0003476423907962 0.0195847202088746 0.0195159981481552 0.3493075316857338 -0.0278931040053368
1455210116115950336 -0.0051953745493593 -0.0024799822124009 0.0230587126507615 0.0067066825817108 0.3573223087901116 -0.0315637705396652
1455210116131860992 -0.0088969154642659 -0.0068917162846821 0.0267282437009459 -0.0055966521323204 0.3768525225106239 -0.0290682081076622
1455210116147793664 -0.0139885319259751 -0.0112203650572751 0.0290391764368318 -0.0088026564975739 0.3724041332354545 -0.0211308684632301
1455210116164084480 -0.0184095537725580 -0.0151579539238204 0.0303790513970865 -0.0072229510193825 0.3735098803084373 -0.0207589629037857
1455210116179928832 -0.0228422149646852 -0.0186166771315973 0.0315358966166838 -0.0024772318255424 0.3740938784665108 -0.0177242561854362
1455210116195855872 -0.0255403886336157 -0.0214522379548428 0.0322048187666456 -0.0071064394401550 0.3804599858620644 -0.0149060189656258
1455210116211915264 -0.0276025728026244 -0.0228135433723894 0.0316986676909289 -0.0086572648608208 0.3789298291354179 -0.0061192053493500
1455210116227949056 -0.0281391784569866 -0.0230806424507578 0.0314635332035442 -0.0035208979976654 0.3746192373886108 -0.0035794063007355
1455210116243902464 -0.0273404964460719 -0.0221027390195445 0.0298864491534156 -0.0034886136846542 0.3729543694091796 -0.0005607482153893
1455210116261156352 -0.0268540620834856 -0.0205589591304279 0.0276919018834884 -0.0036466684036255 0.3721777876550674 0.0012913538157463
1455210116275943424 -0.0252311543520606 -0.0184444038985828 0.0247725913018626 -0.0136404776365280 0.3791148747371673 0.0045666029821396
1455210116292366848 -0.0220146562980707 -0.0150025238531201 0.0228722487638785 0.0012077063952446 0.3727054846647262 0.0102242885520935
1455210116307840512 -0.0183113483757808 -0.0114973484580294 0.0204298797071334 -0.0019895815795898 0.3714278226897240 0.0141418197232246
1455210116323958784 -0.0140871314705937 -0.0069215476836327 0.0186087955063512 0.0004464999049187 0.3705816220404625 0.0111536502996445
1455210116341125376 -0.0091818151113604 -0.0017595731690846 0.0172804094230392 -0.0011977929039955 0.3668583017743111 0.0135260235743523
1455210116356114688 -0.0032370936102800 0.0043844166973998 0.0157606405943107 -0.0109553056558609 0.3764193590571404 0.0116660094549179
1455210116372216832 0.0005901911186557 0.0097937136560613 0.0131131668546326 0.0027403321423531 0.3652950564325332 0.0142614175780296
1455210116387852800 0.0040655510937624 0.0145682222004527 0.0104578594266080 -0.0022560861518860 0.3702366325449943 0.0104086420799255
1455210116403936000 0.0064954751987336 0.0185470980533774 0.0081815331375071 -0.0002227916872978 0.3670943737989426 0.0095731031099319
1455210116420974080 0.0079205753086125 0.0225453191084604 0.0053071940256290 -0.0103915459836960 0.3712587883115768 0.0041263130377769
1455210116436670464 0.0087160974788938 0.0244005397080952 0.0037815396108915 -0.0133288199172974 0.3822576946242333 0.0017195044095039
1455210116452099584 0.0072959921276394 0.0254775726529840 0.0018757602295421 -0.0046472950599670 0.3766503246985435 0.0028748376434326
1455210116468518400 0.0058762542926155 0.0256855548814748 -0.0005593397290077 -0.0131780787362099 0.3725988304626465 0.0023477765935898
1455210116483991296 0.0037331273370155 0.0260786321320483 -0.0035520243934068 -0.0153396500366211 0.3824780359957695 0.0042593408675194
1455210116499874304 0.0005046437265397 0.0243958552077378 -0.0059924213793647 -0.0151024183205605 0.3778858075739860 -0.0104690021483421
1455210116516073216 -0.0026518080343522 0.0228405651363899 -0.0087456266090606 -0.0161850089743614 0.3700336678401946 -0.0055292029824257
1455210116531942144 -0.0049805053862895 0.0204894306522687 -0.0111703002919427 -0.0120575362451553 0.3675498519600868 0.0004786906944275
1455210116548401152 -0.0084136089843799 0.0177251067250217 -0.0133812313288962 -0.0211837279467583 0.3748931116128921 -0.0058521396360397
1455210116564296960 -0.0133849064912005 0.0149000414196322 -0.0160286584632552 -0.0213030639357567 0.3770060881014823 -0.0072672063406944
1455210116579897856 -0.0174962786030983 0.0115724522639307 -0.0187407231804316 -0.0201358906264305 0.3782545894484520 -0.0022207155632973
1455210116596145408 -0.0215129274013441 0.0080230750526474 -0.0208115666177247 -0.0229067301352501 0.3735899177217484 -0.0074371946585655
1455210116612086016 -0.0237889820480138 0.0048866795579249 -0.0208603836920864 -0.0221629751304626 0.3660657649106979 -0.0043639001431465
1455210116628293632 -0.0246163329880633 0.0038903137624547 -0.0215589055459838 -0.0186318643663406 0.3618980583707809 0.0006270189691544
1455210116644089856 -0.0242302398774485 0.0023870405535182 -0.0198579911630693 -0.0226206230368614 0.3647841188344955 0.0016274024643898
1455210116660131072 -0.0230771869992434 0.0013211795694023 -0.0182360221959285 -0.0240408522388458 0.3604150187846184 0.0065545946621895
1455210116676049152 -0.0214167313596094 0.0007213544655032 -0.0165730045953258 -0.0235598234568596 0.3621817525628090 0.0068519993996620
1455210116691963648 -0.0203056086211870 -0.0003025350998330 -0.0141342028428608 -0.0157453362851143 0.3509829678209305 0.0072482958885193
1455210116708013568 -0.0178838697418262 -0.0012567750131804 -0.0105001397720741 -0.0192538330663681 0.3470775760004043 0.0057651814835548
1455210116724009984 -0.0159892476738637 -0.0025139361847188 -0.0076993864642759 -0.0214682077362061 0.3547274992174149 0.0029649007761955
1455210116739943424 -0.0147629259077484 -0.0035485476366037 -0.0044524218474155 -0.0251312988668442 0.3622901837114333 0.0027882909943581
1455210116756739328 -0.0139990886965362 -0.0044268355272426 -0.0022023942740792 -0.0219854114089012 0.3611342706317901 0.0032333506373405
1455210116772554496 -0.0132076504837864 -0.0065230828581739 0.0009149982346851 -0.0277077965377808 0.3589959305693626 -0.0011475894879341
1455210116788057088 -0.0123732594773953 -0.0078336856833070 0.0029527252638230 -0.0206954417409897 0.3565807235305786 0.0023161469450951
1455210116805563648 -0.0113758097753614 -0.0093783577313888 0.0054541552440628 -0.0164473236937523 0.3589076630878448 -0.0044378585288048
1455210116819842304 -0.0113466921035830 -0.0112596773097063 0.0070468440865987 -0.0124929629673958 0.3571913571821212 -0.0014792612366676
1455210116835889408 -0.0110893202210962 -0.0137822288205516 0.0095095144203335 -0.0251370038004875 0.3633887107700348 -0.0003937900589943
1455210116852199424 -0.0125542279313690 -0.0167971602011167 0.0108913128624682 -0.0203051307562828 0.3683892628030777 -0.0038917935032845
1455210116867852800 -0.0138339354246960 -0.0196788709428922 0.0120383123755155 -0.0219348900129318 0.3655396952099800 -0.0035471032830238
1455210116884008704 -0.0153255253459303 -0.0233953628441584 0.0132533796228642 -0.0144742209552765 0.3622406162551879 -0.0057830444725037
1455210116899845120 -0.0175315202138033 -0.0268031810592791 0.0130195420949303 -0.0243393418489456 0.3682198917403221 -0.0077010057539940
1455210116916536320 -0.0190430598747634 -0.0293557610429955 0.0121883908240053 -0.0282616427186966 0.3758035067941665 -0.0102283474720955
1455210116931817216 -0.0202633589020735 -0.0318647770376004 0.0104529911681353 -0.0254046867689133 0.3770837687225342 -0.0049105637190819
1455210116947881216 -0.0208056117895272 -0.0328364859561182 0.0086082860600647 -0.0218491289612770 0.3729546873890877 -0.0113115927904129
1455210116964088064 -0.0208288012647191 -0.0342682812529775 0.0069001704895626 -0.0192373729299545 0.3657107871051788 -0.0085098905258179
1455210116979820288 -0.0196518798052442 -0.0346929529151432 0.0050502389278527 -0.0117410901226044 0.3657152575285911 -0.0041427731741905
1455210116996336640 -0.0171578707233819 -0.0335054640324628 0.0038699805275319 -0.0125305033012390 0.3537588950082779 -0.0069223103687286
1455210117011879424 -0.0136724226940660 -0.0311430457348030 0.0027004333611154 -0.0078728832466125 0.3497553409196854 -0.0000770820706367
1455210117028124416 -0.0082685505945449 -0.0281355006315212 0.0019337319201509 -0.0111219645370483 0.3462618078988075 0.0010802338615417
1455210117044334848 -0.0042378229951964 -0.0249295992955087 0.0024475342576793 -0.0016160487112045 0.3493405828914642 -0.0031863270203590
1455210117060177664 0.0002222301403228 -0.0227463851076003 0.0026669081577330 -0.0036407390135765 0.3473712210930824 -0.0106922427484512
1455210117076239360 0.0035921875258063 -0.0211519385787450 0.0030841256320075 -0.0026676643810272 0.3467509919301986 -0.0148123645303726
1455210117092853760 0.0049732109880638 -0.0203254558292109 0.0038869102425815 -0.0049928269917488 0.3446587776591301 -0.0184050885778427
1455210117108385024 0.0057671898564935 -0.0207083491517759 0.0048329982198322 0.0006231470961571 0.3468931663584709 -0.0189522197712898
1455210117123946752 0.0064720660127518 -0.0205937040615896 0.0066573754193023 0.0034535610759735 0.3353372901799201 -0.0188342305207252
1455210117140091392 0.0072162890425356 -0.0219566073757902 0.0096432463860524 0.0058114007984161 0.3326327027201653 -0.0253016799834251
1455210117156019712 0.0072002568127733 -0.0231905724142341 0.0118455541073961 0.0035022681159973 0.3333641874414444 -0.0282310979428291
1455210117173730560 0.0066283709318702 -0.0248466378328111 0.0141361576031009 0.0010032640191078 0.3386029251302719 -0.0316883812541962
1455210117187924480 0.0062302629699975 -0.0260603668417120 0.0160252589381237 0.0046261774531364 0.3305305936625481 -0.0282496343009949
1455210117204246528 0.0059574767111213 -0.0267101914634968 0.0187299893096580 0.0084558713508606 0.3247872779738426 -0.0267023814781189
1455210117219859456 0.0062968486551522 -0.0274461586939013 0.0211981817079131 0.0118792056308746 0.3320635935036659 -0.0199149319997787
1455210117235888128 0.0066599933066538 -0.0273242271949726 0.0222272524531501 0.0028966286194801 0.3377422844522476 -0.0211205434685707
1455210117252172544 0.0067802310351292 -0.0272432870715423 0.0238686744804733 0.0095498531672478 0.3316259035126686 -0.0222615301972389
1455210117267860480 0.0071059196574794 -0.0258075542910113 0.0240327531668137 0.0100109988526344 0.3267205022909164 -0.0252315373566627
1455210117284522752 0.0084787845257374 -0.0242406088951527 0.0240552595411859 0.0182879410387993 0.3303438833424568 -0.0266391782952309
1455210117299862272 0.0091921242079401 -0.0215637631518121 0.0219318200039443 0.0210360917459488 0.3269234857004166 -0.0246916074728966
1455210117316043008 0.0093989293192291 -0.0187568672629596 0.0189362684466317 0.0136276088026047 0.3414121466844559 -0.0255418483374596
1455210117331822336 0.0090262052772865 -0.0164747765616793 0.0149323495583965 0.0159907232505798 0.3421527780042648 -0.0218258416091919
1455210117347824640 0.0082018477303023 -0.0133526382998525 0.0109574404839154 0.0169713732868195 0.3400429064959526 -0.0209592528364182
1455210117364648704 0.0074070792346094 -0.0098169830260859 0.0065494401634824 0.0195647800069809 0.3395196237956047 -0.0238215583305359
1455210117379863040 0.0059024597977419 -0.0062991123420788 0.0024466114723616 0.0246692553558350 0.3344789501800537 -0.0253278478593826
1455210117396356864 0.0049258506628184 -0.0031690272075592 -0.0019149845976573 0.0269302608439445 0.3317222327200889 -0.0249677075565338
1455210117412411136 0.0043594895095967 0.0004694793475063 -0.0057743257966343 0.0247842331496239 0.3284273062088013 -0.0249409037207603
1455210117427942912 0.0036819267334782 0.0036499541530112 -0.0087518970218472 0.0245629378383636 0.3368518471863746 -0.0267415865303040
1455210117444303872 0.0026697976875157 0.0067227067555835 -0.0122187987973318 0.0232394680519104 0.3432501079620361 -0.0285071980264664
1455210117463081728 0.0000186953908524 0.0088116996357055 -0.0147630217815476 0.0202121309855461 0.3405375335951805 -0.0268341935023308
1455210117477228032 -0.0026016766899926 0.0105156646696487 -0.0167934717230069 0.0228819464071274 0.3383670962667465 -0.0278049674567223
1455210117494154240 -0.0035695200301881 0.0113708403167673 -0.0160451021514059 0.0176202580508232 0.3290031117080688 -0.0321464967781067
1455210117508890880 -0.0039819744408530 0.0106439371551329 -0.0133950677823397 0.0208910554985046 0.3183480913135529 -0.0371086106516838
1455210117523772928 -0.0050364357639228 0.0104243968075112 -0.0108202264350713 0.0219514810822487 0.3251691531386375 -0.0317897607307434
1455210117540102656 -0.0066782173179932 0.0099599228712737 -0.0087221521756321 0.0134600520957947 0.3354569815582276 -0.0337551010185242
1455210117555915008 -0.0087401724551482 0.0096131393499290 -0.0079981864806801 0.0159460564258575 0.3392489293704033 -0.0276682173915863
1455210117572306688 -0.0117953575155898 0.0090879493355794 -0.0078971781068556 0.0158007396079063 0.3379093174274444 -0.0291746565580368
1455210117588833024 -0.0147877745322993 0.0097028173048958 -0.0077017526829045 0.0217991500016212 0.3370937924869537 -0.0277053088126183
1455210117605469440 -0.0160621996456042 0.0099060218223911 -0.0070571318778897 0.0179990282353401 0.3386577299026489 -0.0294070998707771
1455210117621060864 -0.0178444096839545 0.0103397895112599 -0.0066843665569502 0.0224449110806465 0.3353694435600281 -0.0240596130534172
1455210117636055808 -0.0188606186927069 0.0113994453300359 -0.0066397426297248 0.0144558529394150 0.3431898414171218 -0.0254406559079170
1455210117654188288 -0.0201008621334207 0.0137458873243164 -0.0080410354110389 0.0162025165740013 0.3475554810974121 -0.0229427179789543
1455210117668041216 -0.0222009324320968 0.0151013883822671 -0.0094581340534226 0.0146522148849487 0.3417814335858345 -0.0209998420364380
1455210117683886848 -0.0234526527655282 0.0166693444477594 -0.0102048071914092 0.0085787425282478 0.3497403397499084 -0.0197359654256821
1455210117699886336 -0.0246895499443323 0.0173517621665451 -0.0109147966169605 0.0003161281426430 0.3509756355783462 -0.0188544877113342
1455210117716230144 -0.0262860617546130 0.0183457444328398 -0.0110634848953613 0.0025476363181114 0.3555029773941994 -0.0199569427570343
1455210117733419520 -0.0277471611445270 0.0188047562256814 -0.0118228706328114 -0.0043148751232147 0.3569508334387779 -0.0154958155808449
1455210117747940096 -0.0292384807549106 0.0197219662156518 -0.0125493902992488 0.0013577742071152 0.3614058254732131 -0.0152309009080887
1455210117764110848 -0.0298160391689356 0.0204219954187262 -0.0125581188097216 -0.0016044705016136 0.3591426876492501 -0.0115367412699699
1455210117780945920 -0.0301306437148288 0.0206682659142091 -0.0117357932546491 -0.0137461217847824 0.3604565058102607 -0.0130550205118179
1455210117796417792 -0.0303679287047938 0.0208535260522794 -0.0108505518504040 -0.0016248773298264 0.3560395778412819 -0.0075694743002892
1455210117812083968 -0.0301029348552671 0.0210141026817863 -0.0094033608192830 -0.0119559510169029 0.3590064987251281 -0.0080242416828156
1455210117828058112 -0.0279275530241246 0.0206334384250536 -0.0072452921983871 -0.0103870381508827 0.3619673405813217 -0.0063856912169456
1455210117844355584 -0.0275855205821646 0.0206817268619389 -0.0061735749230341 -0.0204377657873154 0.3660683274546623 -0.0067609636224747
1455210117862363136 -0.0268919362289282 0.0205478377697157 -0.0050759410955330 -0.0255483388685226 0.3669336817172050 -0.0030026094523430
1455210117875868160 -0.0263479016867052 0.0206114620197383 -0.0045406630269742 -0.0237429050650597 0.3697980821377754 0.0009006874417305
1455210117891768064 -0.0256070448925393 0.0201122071996644 -0.0040216901621894 -0.0378380752653122 0.3807766003269196 -0.0005357213261604
1455210117908785664 -0.0241479055891876 0.0204780882491860 -0.0031713841051240 -0.0288826387742996 0.3739006589106560 0.0033433903902054
1455210117923913984 -0.0223060753635137 0.0207132427102789 -0.0023813187519162 -0.0372644956254005 0.3773870467359542 -0.0001044283427238
1455210117940563200 -0.0206352413851116 0.0209285126790928 -0.0014026003934093 -0.0319014464972496 0.3751139767160415 -0.0002617535783768
1455210117957029632 -0.0185742689543989 0.0206640914092004 -0.0012698231709412 -0.0267997768534660 0.3793201401201248 -0.0008390741583824
1455210117975092480 -0.0181178750489088 0.0202869997830701 -0.0016024919385085 -0.0360984071887016 0.3833489642590522 0.0014145242683411
1455210117988174080 -0.0166268417283423 0.0198962661142559 -0.0017283755684949 -0.0326360549035072 0.3843311293760299 0.0046547395307541
1455210118004924416 -0.0156783462534662 0.0190715024352054 -0.0021702605723663 -0.0350278249526024 0.3840823568597793 -0.0039179239698410
1455210118021029120 -0.0144902048963188 0.0180389536015848 -0.0025029266767724 -0.0345236958655357 0.3819949122873306 0.0027612814068794
1455210118035755264 -0.0140805880837953 0.0169569831560350 -0.0030842574584815 -0.0308326973217964 0.3884012721982956 0.0000917278511047
1455210118052237056 -0.0137456170134657 0.0156575576179970 -0.0028747598913304 -0.0295508641985893 0.3773187932839393 0.0029116297892570
1455210118068281856 -0.0130109387530288 0.0144446595153563 -0.0029565442368262 -0.0389640234148025 0.3839059154202461 -0.0018115128311157
1455210118083907072 -0.0122244926357424 0.0138054369378711 -0.0031726890540581 -0.0330240652100563 0.3841465326870918 -0.0008039654356003
1455210118100168448 -0.0110505086429499 0.0127577293913257 -0.0028359736132145 -0.0257322995976448 0.3731565485165595 -0.0005615712222099
1455210118117000448 -0.0100515196338059 0.0120121707862553 -0.0028731113946156 -0.0200726500341415 0.3739315777805328 0.0007867384064674
1455210118132053760 -0.0085111659014317 0.0116282082045126 -0.0018094981184598 -0.0277888627096176 0.3672742381986618 0.0011049427708626
1455210118150357504 -0.0074407189539187 0.0108622151643980 -0.0001686553286736 -0.0274716309896469 0.3660402142898559 -0.0005963058509827
1455210118165114624 -0.0054128908945526 0.0113413924130138 0.0017196230895723 -0.0249309715248108 0.3656883601693153 -0.0010521206967354
1455210118179923200 -0.0030813772497626 0.0101120040169032 0.0044397744953987 -0.0212486519620895 0.3586058253363609 -0.0015555577098846
1455210118196015872 -0.0011512312760195 0.0088144733179808 0.0069994478086786 -0.0147395658361435 0.3579010696320534 -0.0056358945939064
1455210118212070912 -0.0005230688065414 0.0067650363695298 0.0095520917082612 -0.0162706577978134 0.3640041515295983 -0.0137409779921532
1455210118228829440 -0.0005169222307455 0.0044067206715292 0.0114850433222127 -0.0130708633931160 0.3587704641098976 -0.0191332251577377
1455210118244064512 -0.0005482050524901 0.0018572166388718 0.0127991268988905 -0.0114339963502884 0.3567838191682815 -0.0190242515727997
1455210118259821568 -0.0013988693047221 -0.0015932401168815 0.0145483736608483 -0.0091926120929718 0.3502863860707283 -0.0178284600717545
1455210118277022464 -0.0023889380557949 -0.0047599889901282 0.0164693397183139 -0.0060982186754227 0.3507274242031097 -0.0187865709439278
1455210118292256000 -0.0035729621658970 -0.0090331867540841 0.0186709763230630 -0.0149404730238914 0.3527584366942406 -0.0233348059102058
1455210118308427520 -0.0038093470074135 -0.0124180298784807 0.0207082572727183 -0.0131036153236389 0.3539594655114174 -0.0225056452430725
1455210118324803584 -0.0039539473335410 -0.0161623225183663 0.0227983194120179 -0.0012715268332481 0.3446577114912033 -0.0207227693083763
1455210118340106752 -0.0033355014073001 -0.0188724417963664 0.0251513460720936 0.0001450736568451 0.3424821116654396 -0.0189276043854713
1455210118356069632 -0.0018288100311045 -0.0213491536469486 0.0277204243387631 -0.0042089316997528 0.3427745222478866 -0.0179894514286995
1455210118372260096 0.0004414109611974 -0.0225355586230653 0.0296616663731880 0.0027650223469734 0.3359661609144211 -0.0156446488824844
1455210118388109568 0.0021197750275817 -0.0231383571463214 0.0302328678216909 -0.0000346785146713 0.3485011159343719 -0.0194752406058311
1455210118404566528 0.0036972705360986 -0.0241085533893400 0.0306452583164897 -0.0025798084029198 0.3434001570692062 -0.0177455982486725
1455210118420531968 0.0057201038368403 -0.0244035850328017 0.0297455093422064 -0.0034495582700729 0.3471369260149955 -0.0157676509927750
1455210118436609280 0.0080375053910140 -0.0237225215314303 0.0293045750868442 -0.0048182560222626 0.3518244548856735 -0.0098984339652061
1455210118451824640 0.0107677088983749 -0.0222265214154308 0.0283862798587296 -0.0038240076687813 0.3507229537796974 -0.0031226562199593
1455210118468317696 0.0152067470297322 -0.0195003592550241 0.0277327933904460 0.0066418520898819 0.3442217610373496 -0.0042346506628990
1455210118483801088 0.0202893553490543 -0.0155196804420415 0.0266736036248608 0.0137561849136353 0.3425519924263954 -0.0009013982203484
1455210118499825152 0.0255413513663497 -0.0107935122661767 0.0253382467173954 0.0036776620923042 0.3500612001817703 -0.0024656536159515
1455210118517733120 0.0307174699294472 -0.0064557128720782 0.0244783373014392 0.0006380547424316 0.3466345925791740 -0.0028580221177101
1455210118531825920 0.0344206167304911 -0.0024449150387472 0.0235568769063690 0.0044195466270447 0.3453017143283844 -0.0021722329796791
1455210118547870208 0.0381521075550167 0.0001686832918651 0.0234421106423532 0.0011549778446198 0.3386347044163704 0.0011398831513405
1455210118564904704 0.0407990659730239 0.0037544246362528 0.0238998760758047 0.0075442416593552 0.3375165000128746 0.0036399534161568
1455210118579857408 0.0435750745195536 0.0074399066897862 0.0249908173794864 0.0013587655562401 0.3392017374111175 0.0084839658109665
1455210118597897472 0.0447045491010477 0.0100999878340648 0.0261208632090343 0.0018437971441269 0.3429765704223632 0.0018337153105736
1455210118613316608 0.0443993907875410 0.0113647922779318 0.0272765366377520 0.0031840637516022 0.3437665447420120 0.0022395886060715
1455210118627884800 0.0434088320148276 0.0124949433023427 0.0286684670762539 0.0017130699925423 0.3432727406496048 -0.0009699509475708
1455210118644697344 0.0415413089425372 0.0135310381349548 0.0310686822876847 0.0036623242379189 0.3422503043125152 0.0009245359348297
1455210118660126976 0.0394960717991252 0.0142039723370987 0.0333503681884793 -0.0014272808740616 0.3428290277450561 -0.0013258265787125
1455210118675815680 0.0361019915004877 0.0147892698972514 0.0361054775783547 -0.0109787613502502 0.3544508941068649 0.0011181295846939
1455210118691832576 0.0316851974221353 0.0157311620642046 0.0377104635672240 -0.0055288662978172 0.3562248478994369 0.0027943887267113
1455210118707964928 0.0254669732718455 0.0165728860846573 0.0375298120294201 0.0002204161903381 0.3522165241122245 -0.0004925882868767
1455210118723894016 0.0204633476525524 0.0189082959341221 0.0383242143404631 -0.0021520693125725 0.3453578658391953 -0.0008357073122978
1455210118739870208 0.0162347405263083 0.0220097347763762 0.0393217466004908 0.0147413053732872 0.3283823401088715 -0.0016953005270958
1455210118756447232 0.0134162279287809 0.0262714343423257 0.0401289507268938 0.0134691986943245 0.3284882648276329 -0.0012659715372086
1455210118775241216 0.0122465875517263 0.0321355273098233 0.0402096098868291 0.0173171670844078 0.3310557842423439 0.0046226235600471
1455210118787964160 0.0109191162642486 0.0387162263266006 0.0399446573162993 0.0126744920854568 0.3331206522413253 0.0063376201367378
1455210118806800640 0.0096599204376374 0.0449219828882472 0.0389317799220705 0.0110343891294479 0.3346988987528801 0.0064704422147751
1455210118820971264 0.0067009607137025 0.0495708088713144 0.0382575447657341 0.0024635399847984 0.3317227377470017 0.0065354971630096
1455210118835933184 0.0031643240650742 0.0525498328509020 0.0378412900241936 -0.0045587844173431 0.3327775332159042 0.0040221278561592
1455210118851979776 -0.0010855231024439 0.0548677550530688 0.0380658051567316 -0.0055719619277000 0.3303552745050430 0.0023485621910095
1455210118867957248 -0.0066853612476174 0.0559952602269367 0.0384545747442419 -0.0052490439787865 0.3276323751435279 -0.0036865842344284
1455210118885404672 -0.0133342811304586 0.0561153474868106 0.0385542528691020 -0.0039215526817322 0.3316461045891761 -0.0000335562326431
1455210118899778304 -0.0202505943709687 0.0559862574108717 0.0384574735950885 -0.0075016323516846 0.3344037385794639 -0.0030025907476425
1455210118915907328 -0.0278272517195695 0.0544812291787769 0.0388068683458820 -0.0109467950171471 0.3210602728816986 -0.0084857801669121
1455210118931916288 -0.0339420133930902 0.0535264766069196 0.0391751848562205 -0.0074122987022400 0.3165440977720260 -0.0011649661546707
1455210118948106752 -0.0375865879606995 0.0534651733017871 0.0400258198136805 -0.0097958199784279 0.3211853699184418 0.0005140051689148
1455210118965536768 -0.0382761549354315 0.0551864422249131 0.0415263579561775 -0.0050237832710266 0.3100588414344787 0.0052794017076492
1455210118979964160 -0.0387469245844859 0.0565141172442141 0.0417520089269204 -0.0163191590861320 0.3105671977838516 0.0078210712263107
1455210118995928576 -0.0390574078885923 0.0571927026741912 0.0413935314652292 -0.0168090351914406 0.3266313182790757 0.0002255599829674
1455210119012409600 -0.0414810349491660 0.0569675297408639 0.0386508390639364 -0.0183916586029053 0.3289724921133995 -0.0010743418808937
1455210119028005888 -0.0419740846039000 0.0568729702116190 0.0359536574225120 -0.0240061737241745 0.3228695037393570 0.0041200282584190
1455210119044788224 -0.0386983405367196 0.0573684353534617 0.0362120612799213 -0.0223030172228813 0.3048769847397804 0.0085622636871338
1455210119060493568 -0.0325861954189698 0.0584286850571608 0.0373922597591175 -0.0108914478084564 0.2988383966494560 -0.0000096329207420
1455210119075967488 -0.0267456115059949 0.0593580217511549 0.0386686249852765 0.0006108581079483 0.2844136496269226 -0.0076221280321121
1455210119091957504 -0.0203523617457039 0.0586899584706447 0.0396242350950047 0.0106030213272095 0.2820804252902984 -0.0117894230686188
1455210119107962880 -0.0155267591242189 0.0573950336748489 0.0397803163085916 -0.0006425999846458 0.2909206595311165 -0.0087193644663811
1455210119124043776 -0.0105016164948986 0.0551640809928203 0.0398485491588805 -0.0089967738790512 0.2974620673794746 -0.0100057802412033
1455210119140324608 -0.0064849557124278 0.0528887560522893 0.0395825273291730 -0.0074803089931488 0.2934703346615791 -0.0116046580373764
1455210119156433664 -0.0029190775550304 0.0496701634221020 0.0384509288767096 -0.0015483376955032 0.2985148240360260 -0.0160022640507698
1455210119178965504 -0.0001618815784410 0.0466118278420908 0.0365028092287696 -0.0107459252388000 0.3001484551656722 -0.0170418338934898
1455210119188129280 0.0033232189083527 0.0440244656429574 0.0343255978059582 -0.0094540851008415 0.2975153383664131 -0.0156568443471909
1455210119204391680 0.0093655932002840 0.0419827984669867 0.0333826150745386 0.0015623288114548 0.2891952444362640 -0.0079062524322510
1455210119226921984 0.0163859055445228 0.0422366256820627 0.0307808451739078 0.0071130047900200 0.2937061261157036 -0.0121348240674973
1455210119235864064 0.0231965911582977 0.0447205187465243 0.0246016549757153 0.0320616896661758 0.2978606458417892 -0.0167864586179733
1455210119252727552 0.0283997647749092 0.0491312181807221 0.0141344891326780 0.0383699247184753 0.3073569100421905 -0.0231207306133270
1455210119268154880 0.0322658158082527 0.0540933317765236 0.0030006009107394 0.0277972985295296 0.3278374347747803 -0.0177822220521927
1455210119284464896 0.0346025039750408 0.0570024730775269 -0.0066932122465109 0.0247026993602753 0.3326437571981430 -0.0144462200186729
1455210119300587008 0.0343713442555830 0.0571291117136823 -0.0139564914349004 0.0029176152934074 0.3603101415290832 -0.0210439290154457
1455210119316650752 0.0340143887904548 0.0557875309987494 -0.0173890184586148 0.0047580081820488 0.3269518046169281 -0.0230054161349297
1455210119333315840 0.0388424708149147 0.0548170138448195 -0.0155012580252008 0.0005455787033081 0.3217624660420417 -0.0216361759464264
1455210119347752448 0.0420848188420255 0.0556680349606376 -0.0141853408621125 -0.0106124110868454 0.3627240953529358 -0.0070948799352646
1455210119363964416 0.0417778469158164 0.0550748611015610 -0.0142464111406497 -0.0109570451930046 0.3554987501318931 -0.0123682587293625
1455210119379779584 0.0418470464935810 0.0551568132262054 -0.0145497771467428 -0.0111324578740120 0.3535242071314811 -0.0112669072609901
1455210119395910144 0.0419488817789240 0.0551840933168317 -0.0141242519414477 -0.0138051725241661 0.3581220095540046 -0.0122364841145515
1455210119411833856 0.0410964052455702 0.0549573970553609 -0.0144674135637099 -0.0059465422593117 0.3603595967571258 -0.0109899093517303
1455210119427983616 0.0417564497480381 0.0554499886463874 -0.0142480569742033 -0.0024301333897591 0.3578044224447250 -0.0082805896027565
1455210119443833600 0.0418226199800628 0.0550888879710224 -0.0146048113706693 -0.0034867806240082 0.3549406953933716 -0.0099402763801575
1455210119461636096 0.0414907421713393 0.0556441117845654 -0.0147185083755075 -0.0016399533184052 0.3495407793005943 -0.0055681648735046
1455210119476121344 0.0416671885777820 0.0551633579445843 -0.0139998370448025 -0.0023944822306633 0.3568813267718315 -0.0114856774376869
1455210119492072448 0.0417269299389352 0.0551842997118161 -0.0141641167998051 -0.0031314848385811 0.3624026737800598 -0.0136331828033447
1455210119509565696 0.0415686729227377 0.0551957260044731 -0.0141785524644939 -0.0068053498766899 0.3620791385760307 -0.0110883895997047
1455210119524167168 0.0418123787940909 0.0554315182926471 -0.0144450669790030 -0.0118597153329849 0.3630546448196411 -0.0110160959323883
1455210119540513536 0.0412964832119457 0.0549038581963864 -0.0143014413698345 -0.0027690812669754 0.3583578197128295 -0.0093262758825302
1455210119556157440 0.0413988378137012 0.0554068281261810 -0.0141815405312370 -0.0039168390972137 0.3540386050991058 -0.0107922941912651
1455210119571838720 0.0416005975663051 0.0550531563386768 -0.0144673389951994 -0.0048604725312233 0.3605504408160209 -0.0146790374254227
1455210119588697088 0.0420005364514272 0.0551637520924256 -0.0141493975084603 -0.0017236381483078 0.3596508195422172 -0.0114061637559891
1455210119604831744 0.0415616728038125 0.0549342675012935 -0.0139689177445467 -0.0021670330729485 0.3602051333406448 -0.0112043587426186
1455210119620245504 0.0416125524964384 0.0550404703708242 -0.0144049637677281 -0.0102867248422623 0.3595887760507583 -0.0130997247459412
1455210119635967232 0.0416505997473519 0.0554834592549675 -0.0142261937532343 -0.0011537994484901 0.3563409666799545 -0.0139926497369766
1455210119652110848 0.0416867122117333 0.0555682862620087 -0.0140751991773296 -0.0068232315703392 0.3618025334654808 -0.0122134586282730
1455210119668366592 0.0418104000654010 0.0549912418380741 -0.0141441990180124 -0.0083196076079369 0.3599408920371056 -0.0091040640409470
1455210119683915008 0.0416758345302609 0.0555071653834108 -0.0142557428571093 -0.0116765027918816 0.3571008825459480 -0.0129973913296700
1455210119700279296 0.0413554735616715 0.0550914592530549 -0.0142479650951457 -0.0096903254677773 0.3581391804690361 -0.0105030634078979
1455210119716100352 0.0414785688619966 0.0553380013909690 -0.0140683601796502 -0.0041591584918022 0.3575687619235039 -0.0079055603583336
1455210119732501760 0.0420033953548574 0.0552425523659200 -0.0138577520743246 0.0019149872341156 0.3525061102849007 -0.0069774144163132
1455210119748480768 0.0417059908348644 0.0550717225662163 -0.0142945557668361 0.0030594156276703 0.3529008542836189 -0.0084013471489906
1455210119763759616 0.0418568123052983 0.0557426034711598 -0.0138627761277210 0.0008683096052170 0.3525300523015023 -0.0105524064077377
1455210119782210048 0.0418367054390682 0.0550232184132827 -0.0141372881149837 -0.0000372036492348 0.3516942140563011 -0.0092214173316956
1455210119796970752 0.0417659425857437 0.0553919304030431 -0.0142109924297322 -0.0050601452087402 0.3580030476590156 -0.0102302366468430
1455210119812060928 0.0418188782387312 0.0548157714801710 -0.0141295116846006 -0.0334675349534988 0.3588596481217384 -0.0051022681941986
1455210119827747328 0.0444056252476528 0.0441824124008878 -0.0138647242300584 -0.0959882581401825 0.3395086441364288 0.0389206659191132
1455210119844045568 0.0487117796300985 0.0274665931289455 -0.0139168050083360 -0.1044800238112450 0.3551159584367752 0.0578527594326973
1455210119862460160 0.0508002731675160 0.0086153527580172 -0.0122944498828372 -0.0857881921751976 0.3673016779942512 0.0459506779531479
1455210119875906560 0.0513667288629564 -0.0031911527498956 -0.0105322361895317 -0.0462908790452957 0.3752665696624756 0.0233404547297478
1455210119891789312 0.0505217770912626 -0.0090857375802941 -0.0090076816603244 -0.0205315324507713 0.3716452087185859 0.0010802338615417
1455210119908571904 0.0497914917150438 -0.0112175807223555 -0.0080612008668130 -0.0078405615242004 0.3656058350308418 -0.0064101569651604
1455210119923947264 0.0494009351464421 -0.0116918004966021 -0.0078028968779446 -0.0107887028887749 0.3596146633562088 -0.0080765026159286
1455210119939832832 0.0495446446451849 -0.0118346151732186 -0.0080036073450789 -0.0010275801297188 0.3525220092803001 -0.0114709568384171
1455210119957515264 0.0491944362986784 -0.0114777502555675 -0.0077387639641538 -0.0055711950349808 0.3596072749995232 -0.0111059720181465
1455210119971790080 0.0495666703189804 -0.0118709553378733 -0.0074995322034320 -0.0154707886916161 0.3611710814823151 -0.0087356749651909
1455210119988008192 0.0496291507413148 -0.0116685417792218 -0.0076875167552974 -0.0050082022555351 0.3582008124570846 -0.0098593785506248
1455210120004558848 0.0496363812236744 -0.0114937132431414 -0.0075938054428597 -0.0113666033144951 0.3614100714402199 -0.0130563672502518
1455210120020091904 0.0497580251012054 -0.0112550460725707 -0.0081986905528300 -0.0048433016161919 0.3616685329913139 -0.0124907932221413
1455210120035854080 0.0496012301604464 -0.0118635557447845 -0.0076410805469503 -0.0112961614125252 0.3592428700249671 -0.0104301524854660
1455210120051859968 0.0493251482397212 -0.0114808248750460 -0.0079112795448275 -0.0107120697309494 0.3603141256302834 -0.0107377512846947
1455210120067683328 0.0493495121689537 -0.0117143068709743 -0.0076357169405149 0.0026459856331825 0.3539984835165977 -0.0055936593802452
1455210120084057344 0.0496863607678519 -0.0108933568386049 -0.0076948937115170 -0.0068111857432365 0.3620341163619995 -0.0123372463359833
1455210120100217856 0.0493486040310220 -0.0116704672446900 -0.0075435915405063 -0.0066986395605087 0.3554151401207924 -0.0103051863816261
1455210120116773888 0.0495929770242282 -0.0116812144312690 -0.0075229999789578 -0.0063255556049347 0.3594261760895729 -0.0099277816402435
1455210120131787264 0.0498138609366200 -0.0118872472258419 -0.0076426145277382 -0.0009199345785141 0.3537304264541626 -0.0079299886971474
1455210120147854592 0.0493483523622990 -0.0117756181655901 -0.0076517917808546 -0.0091471783755302 0.3553906369631767 -0.0117298485976219
1455210120164270592 0.0498781709506232 -0.0118372170816037 -0.0077000003229072 -0.0089205896340370 0.3570619580642700 -0.0109590840053558
1455210120180516352 0.0490184053453658 -0.0112914687952192 -0.0078167173524215 -0.0079780597773552 0.3538180766805649 -0.0122979851696968
1455210120196046848 0.0494933388467846 -0.0120067299481483 -0.0075119012551149 -0.0106419083994865 0.3586895849850654 -0.0106504377429008
1455210120211919360 0.0494398119720351 -0.0115357698830759 -0.0075085976037827 -0.0041800703469276 0.3561750746914863 -0.0095714009821892
1455210120227877120 0.0490727604632143 -0.0114217066935879 -0.0079716520751591 -0.0083784713003159 0.3599639549327850 -0.0080665330105782
1455210120244495616 0.0425458599636178 -0.0100945057169609 -0.0048789830223746 -0.0364689473050117 0.3858195559159279 -0.0753404385665894
1455210120259907328 0.0322908987909796 -0.0075616317937305 -0.0003398965867657 -0.0158823108066559 0.3650997045408249 -0.0352161625816345
1455210120278471936 0.0248630668735758 -0.0054601699933848 0.0025422535765896 -0.0135269401046753 0.3868422354141235 -0.0569643235697746
1455210120292931328 0.0117067914303781 -0.0001521370720124 0.0057012087089062 0.0000274210908890 0.3855882722946167 -0.0688992130939484
1455210120307889664 -0.0027844281303160 0.0075040848773155 0.0085876385721333 -0.0423521741532326 0.3968898206608772 -0.0394431069079399
1455210120326319104 -0.0153153627232106 0.0089947853027457 0.0104807559540800 -0.0276100083637238 0.3786486226685524 -0.0510474282607079
1455210120340006400 -0.0241561866885972 0.0110242205798297 0.0122653468584448 -0.0516181273767471 0.3517959676268578 -0.0320319678971291
1455210120357756160 -0.0273902229899458 0.0057501416307753 0.0142589905820587 -0.0904595414799690 0.3319452862731934 -0.0086791306556702
1455210120373000960 -0.0246247325981414 -0.0050237937382282 0.0153909645402357 -0.1163074922406196 0.3042624043964386 -0.0123443915315628
1455210120388085248 -0.0225854183249937 -0.0143980715068270 0.0170396090604353 -0.1232370600331306 0.2919314054304123 -0.0713732651204109
1455210120405915136 -0.0271415676337067 -0.0189468518488037 0.0193165931503254 -0.1317466512837410 0.2897429928848267 -0.1299523841864586
1455210120429633536 -0.0372008676926373 -0.0185478344174188 0.0221854448187775 -0.0993155063738823 0.3229823679019928 -0.1515761028023720
1455210120436859648 -0.0533951601283095 -0.0120673022155616 0.0244654875491795 -0.0610617939594269 0.3511470080440521 -0.1634018691040039
1455210120452243712 -0.0723749206587033 0.0021666493259281 0.0226843907121649 0.0043316345348358 0.3450533346108436 -0.1563940969588280
1455210120467910400 -0.0882810177854320 0.0202418006130493 0.0165391678020958 0.0122580319294929 0.3255950591683388 -0.1436615828925133
1455210120484197888 -0.1009652985254739 0.0381598120800503 0.0066076115911730 0.0303065153928757 0.3156233214819908 -0.1095313029919624
1455210120500076544 -0.1072634241663688 0.0564621443239607 -0.0117442487911101 0.0626665637362480 0.2924761237174988 -0.0884907034132004
1455210120516097280 -0.1112021834922131 0.0829154326213225 -0.0409129933412964 0.1722730222146988 0.3099129447708129 -0.0641462738857269
1455210120531734784 -0.1236974876528835 0.1151027504248645 -0.0669587753812986 0.1195419838646889 0.4061702700272560 -0.0585978424712181
1455210120547902720 -0.1432524310576099 0.1326106590524432 -0.0748594582081487 -0.0532616719976425 0.3712953747056961 -0.0613494909573555
1455210120564072448 -0.1508634711474641 0.1328345230420947 -0.0705690284603595 -0.2154902887646675 0.2282962000756264 -0.1052269212057114
1455210120580467200 -0.1345291137490009 0.1174831996546848 -0.0636576860100240 -0.3566050957552910 0.0726308756565094 -0.0974638532555580
1455210120596192512 -0.0956519552608879 0.0885126222527918 -0.0574011842453864 -0.3478199468573570 -0.0045167175459862 -0.0605904916216850
1455210120614275840 -0.0538167012446137 0.0633165896691872 -0.0524632641365078 -0.2463616299976349 0.0930083561942101 -0.0388576497832298
1455210120627757568 -0.0306231953584390 0.0506762817134841 -0.0420625974258898 -0.1187782148303985 0.2509840478059768 -0.0334063892876625
1455210120646281984 -0.0303430241538599 0.0539348377389891 -0.0274955869637332 -0.0286024236565590 0.3637926200719833 -0.0633375387515068
1455210120660064768 -0.0415936613632460 0.0702748157389330 -0.0160238008574269 0.0220773450117111 0.3512307863974571 -0.0724365525233269
1455210120675892992 -0.0460629037361064 0.0879644211950433 -0.0136947040313261 -0.0019584569580078 0.2384030979275703 -0.0823754821650505
1455210120695690240 -0.0413876565318645 0.1003032060521276 -0.0163305490781044 -0.0732935644894600 0.1722162347440720 -0.0922657047667503
1455210120708052480 -0.0309806967715906 0.1040469487492482 -0.0194732176487746 -0.0805257182214737 0.1673624397909164 -0.0740934335956573
1455210120723906816 -0.0225016778876773 0.1066818856580947 -0.0204114279955208 -0.0391290362823486 0.2117793697149277 -0.0415889849646568
1455210120739791360 -0.0141309631073947 0.1068915976097136 -0.0188729331495875 -0.0036168157016754 0.2367836075514793 0.0003163151896477
1455210120756504064 -0.0034263365057605 0.1025002167460632 -0.0158983872753729 0.0087740570105553 0.2609286449719429 0.0428239254037857
1455210120774270976 0.0097941197881276 0.0933459973099183 -0.0122266830857390 0.0049680619683266 0.2545955887821197 0.0500255530646324
1455210120787941120 0.0215174494488751 0.0841745285793928 -0.0097325834563996 -0.0080315178112984 0.2326278533151626 0.0223232931181908
1455210120803944192 0.0321810806802691 0.0762946197406259 -0.0128956611620837 -0.0134548147796631 0.2049134540181160 0.0110198555771828
1455210120820352256 0.0438441137107762 0.0660304054147803 -0.0168163589294150 -0.0233334591717720 0.2015646205600738 0.0317493211683273
1455210120836286720 0.0567559296080322 0.0512537921906095 -0.0202475357304568 -0.0319636209216118 0.2037199818999290 0.0399667824069977
1455210120853689344 0.0665868249876527 0.0364475566256337 -0.0227894391013631 -0.0031668367224693 0.2411722914227485 0.0474980991183281
1455210120867827968 0.0683911845367892 0.0275035151942983 -0.0256529870845042 0.0268909622682571 0.2699173197156906 0.0252215303419113
1455210120883800064 0.0658751897285477 0.0246064819551911 -0.0310349706630259 0.0361183463994026 0.2567478077322960 -0.0045906385222435
1455210120903699968 0.0634824207155248 0.0273794425138532 -0.0365470656397645 0.0268176211377144 0.2469301593684196 -0.0251171019991875
1455210120917137408 0.0585962245213377 0.0323253853955156 -0.0393075626045250 0.0151034096696854 0.2623419721394539 -0.0366984726844788
1455210120932248064 0.0528887161048729 0.0366519888603914 -0.0357408468829648 -0.0022476690366745 0.2788741590592384 -0.0304707052536011
1455210120947872256 0.0435423203013068 0.0398571338586543 -0.0282979601159188 0.0003020809125900 0.3029554321557998 -0.0189643778265953
1455210120964000512 0.0335370184966386 0.0403698296527499 -0.0205052618133687 0.0083205802523613 0.3035919531127930 0.0044007671077728
1455210120981207040 0.0254227474872031 0.0416450989881203 -0.0177855564870249 0.0261770599654198 0.2956804820691109 0.0121354787320137
1455210120995949312 0.0177429925149027 0.0464378448596565 -0.0194477138865955 0.0220117102177620 0.2833757070931434 -0.0026558617150307
1455210121016793088 0.0071113458482004 0.0504831346238456 -0.0178490569000567 0.0019323264914513 0.2978422404165267 -0.0064434700366974
1455210121030137088 -0.0050621778790195 0.0530496389453215 -0.0122167215316816 -0.0162260283824921 0.2983520183231354 -0.0038670658892632
1455210121043953664 -0.0162955271781893 0.0515679479938590 -0.0055182894894341 -0.0109461216479301 0.3025384856776237 0.0263115841711998
1455210121065387520 -0.0226427188990079 0.0444938677587921 0.0013558645794395 -0.0114463040431976 0.3166682595737457 0.0495041221296310
1455210121077097472 -0.0260560431996823 0.0371739724287886 0.0060864509395527 -0.0043649663110733 0.3046868327548027 0.0672912448133469
1455210121093623296 -0.0259462850100963 0.0271520032304382 0.0082942074884868 -0.0107326823108673 0.2967759602615356 0.0730662275599480
1455210121108023552 -0.0242934793006935 0.0178028523867244 0.0094830838780950 -0.0250514672052383 0.2926466170622825 0.0609303186198235
1455210121123915008 -0.0252250357394561 0.0102040468589180 0.0096054401512176 -0.0196197344169617 0.2855227448412895 0.0440043042316437
1455210121141603072 -0.0287477160923919 0.0057225113344657 0.0080917779508687 -0.0104495866692543 0.2858015009923935 0.0490160790849686
1455210121155971584 -0.0299861592362087 -0.0018509768524378 0.0080302775718155 -0.0045981391071320 0.2966805849938393 0.0784035764296532
1455210121174152192 -0.0281420932867997 -0.0136011032400737 0.0100110249378507 -0.0061307274448395 0.3117097931167602 0.0879197424313545
1455210121188182528 -0.0248740337709448 -0.0266625328642093 0.0111048930555704 0.0027303438323021 0.3051886424590111 0.1129553480505943
1455210121204264960 -0.0217037322408039 -0.0373271880810425 0.0089829874991167 0.0011511433810234 0.2971812350066185 0.0918950524222374
1455210121219926784 -0.0214097778460032 -0.0444585542427376 0.0058375732093626 -0.0071644427163124 0.2873857143033981 0.0647794654060364
1455210121236509184 -0.0220679008777446 -0.0507532803585011 0.0038603292317415 -0.0200148338049889 0.2891104747337341 0.0632695845746994
1455210121252060416 -0.0232386238297824 -0.0594331002570258 0.0034016929446135 -0.0138914573074341 0.2997690864307404 0.0797699922083855
1455210121268688128 -0.0246080838465867 -0.0695768944278614 0.0049509456297702 -0.0116400286259651 0.3014422967065811 0.0905563570096016
1455210121283825920 -0.0240581650499352 -0.0800932115719772 0.0034570400899680 -0.0123327197984695 0.2898586814572334 0.0985230817384720
1455210121301988096 -0.0199360737146498 -0.0916557342397835 -0.0023257692063187 -0.0221860941402435 0.2695090709232330 0.0998598879763603
1455210121316437760 -0.0153224893422876 -0.1023503100714638 -0.0104509245551294 -0.0241678197456360 0.2690235904225349 0.0828355429778099
1455210121331944960 -0.0134811957435734 -0.1087549847928311 -0.0157480411791936 -0.0248418436270714 0.2804856625282287 0.0692039687787056
1455210121351785984 -0.0127620437122917 -0.1158549669326602 -0.0176407484343323 -0.0381515473404884 0.2947121397257804 0.0754015655277252
1455210121363885056 -0.0127358342124236 -0.1223287267158653 -0.0172965361950201 -0.0339351337605476 0.3080046725241661 0.0704007516288757
1455210121379809024 -0.0141097070871543 -0.1282940331205914 -0.0169186362994990 -0.0310997817398071 0.2804792468159675 0.0697814389963150
1455210121396978432 -0.0143860113818305 -0.1332504741832709 -0.0198933126686070 -0.0188733046400070 0.2838396584836006 0.0646626545516014
1455210121411802368 -0.0174721969689412 -0.1325819302021840 -0.0226461557083946 -0.0039171944865227 0.3036866363065719 0.0352241868981361
1455210121428130816 -0.0247328316383682 -0.1276391937664740 -0.0244415830152350 -0.0152729116653442 0.3095152454294205 0.0250792810948372
1455210121443820032 -0.0311121903504133 -0.1234360065128346 -0.0252052298104292 -0.0213974104449272 0.3089178360011101 0.0281777708417892
1455210121460196608 -0.0372256231065501 -0.1190234694974847 -0.0249601830374672 -0.0240802443380356 0.2996935194408417 0.0258950304917335
1455210121475934464 -0.0404064174913859 -0.1165790444803780 -0.0268941639631800 -0.0423601049462318 0.2853443955223083 0.0470212414845467
1455210121491943680 -0.0388420766670734 -0.1156408834021120 -0.0321357909627713 -0.0407785289979935 0.2771329759018898 0.0377047481603622
1455210121510461952 -0.0395973358364144 -0.1116033434366950 -0.0382870059852931 -0.0477015875547409 0.2692494309760093 0.0245239385378838
1455210121523756032 -0.0396343271439556 -0.1083487595159559 -0.0450968979770631 -0.0560471946963310 0.2733232025101661 0.0244917477483749
1455210121539863040 -0.0400464113752290 -0.1039774895132773 -0.0513223952202899 -0.0386887276332855 0.2910259856994629 0.0190805901306152
1455210121556588544 -0.0433140860643064 -0.0970213353828595 -0.0563251047121679 -0.0265003707130432 0.2941653639216423 0.0131187848357201
1455210121571922944 -0.0453005192792689 -0.0902181119464591 -0.0603895745625278 -0.0390618489982605 0.2985811696085930 0.0169562037747383
1455210121590900224 -0.0447090751433203 -0.0846908302936043 -0.0625689857563996 -0.0335252576591492 0.2921903907131195 0.0248602116429329
1455210121605628928 -0.0421887020982467 -0.0802369996339722 -0.0643095093342069 -0.0442524033786774 0.2915678047579765 0.0152902135132790
1455210121619842304 -0.0387707718604670 -0.0760564785443705 -0.0656882930779876 -0.0505524270674705 0.2892439701809883 0.0158960026473999
1455210121636326912 -0.0356608468553994 -0.0725074781703814 -0.0659017880499349 -0.0503357331125259 0.2949809636809349 0.0135527151819229
1455210121652024832 -0.0313016835830363 -0.0701547231527369 -0.0657751613980044 -0.0463377904340744 0.3093024233474731 0.0154639240665436
1455210121667865088 -0.0268279391363530 -0.0675445576367697 -0.0648155112729025 -0.0493879285303116 0.3053383922909736 0.0234236906468391
1455210121684025600 -0.0178800374530176 -0.0708735822362988 -0.0662278788096096 -0.0505380431528091 0.3031086610620499 0.0502126935928345
1455210121699875072 -0.0031894203636065 -0.0765003928769925 -0.0697137409604751 -0.0243159235639572 0.2969855090209008 0.0549890884954453
1455210121715941120 0.0129674227008169 -0.0818918706248003 -0.0758345360254454 -0.0151136411408424 0.3022707091856957 0.0648996805159569
1455210121733092864 0.0322642804958843 -0.0878122455071951 -0.0845798457183364 0.0059773301962852 0.3110234989518165 0.0759456478549957
1455210121747840000 0.0510199147152592 -0.0928775099899180 -0.0919580416393433 0.0214104850305557 0.3375295371891022 0.0762633658971787
1455210121765179136 0.0649749147799492 -0.0951352167882576 -0.0970576542422255 0.0168548242981911 0.3684476401732444 0.0509828970440865
1455210121779806976 0.0733280100864598 -0.0953628797772042 -0.0996222597298442 0.0239884977822304 0.3991143706877708 0.0538674611317635
1455210121798160384 0.0811377486252448 -0.0986840520462591 -0.0987829365491143 0.0010730512565613 0.4008653738128662 0.0604152285782814
1455210121812183808 0.0889064545095344 -0.1050501362318506 -0.0957428236488619 -0.0426739885248184 0.3624950375909805 0.0139299141716003
1455210121827786240 0.0954722384926266 -0.1101866336158304 -0.0929415030877516 -0.0404994922763824 0.3450764349159240 -0.0074996870628357
1455210121844011264 0.0987009764349865 -0.1127973983430429 -0.0921698961040591 -0.0056653544971466 0.3586016915975570 -0.0123082540502548
1455210121862955264 0.0992132900654656 -0.1123062408642634 -0.0919009075128973 -0.0067334677127838 0.3620746494479179 -0.0134601456192970
1455210121877889280 0.0986313334409004 -0.1127421523978098 -0.0915235628864634 -0.0149574943013191 0.3686791295462608 -0.0132523363970757
1455210121891777280 0.0989934980491208 -0.1125719857252175 -0.0918206917692835 -0.0105996918905258 0.3658550377552032 -0.0145016046367645
1455210121907861504 0.0988386618633436 -0.1126185204705250 -0.0922172511029823 -0.0120205944617271 0.3547686121490478 -0.0114218008855820
1455210121924334592 0.0985123700350066 -0.1129107837580336 -0.0917124036446193 -0.0043109845455170 0.3639359354869843 -0.0148714339744568
1455210121939811584 0.0991682280482409 -0.1127535906746917 -0.0917521246922778 -0.0128558528612137 0.3655838757124901 -0.0124032178145409
1455210121957379840 0.0990226463472517 -0.1125965320809848 -0.0919708075020286 -0.0090929160394669 0.3659483368011474 -0.0115581768567085
1455210121972213248 0.0995734865976405 -0.1125863135318822 -0.0918908394323962 -0.0039418472817421 0.3582322363538742 -0.0134972183356285
1455210121987778304 0.0991513768964434 -0.1127416144392696 -0.0917342921656186 -0.0026828525978088 0.3591525263216972 -0.0113884504046440
1455210122006561024 0.0995779034503084 -0.1126590218243829 -0.0920662525323359 -0.0081713167426109 0.3550595263554573 -0.0127206552862167
1455210122019713280 0.0996132941980344 -0.1127919881312884 -0.0916413545014776 -0.0096045083020210 0.3641660968262672 -0.0152441064266205
1455210122035902720 0.0994069285083253 -0.1131143837549507 -0.0919781751371843 -0.0091337109911919 0.3625508150077820 -0.0163193648378372
1455210122051714816 0.0990418264334225 -0.1131194317767970 -0.0921674499905979 -0.0085662103789330 0.3611016496341705 -0.0109832130689621
1455210122067743488 0.0994650759675661 -0.1127877576998969 -0.0921688095343343 -0.0101271924519539 0.3606729378993988 -0.0119451022906303
1455210122083931648 0.0991034200231138 -0.1128459917118731 -0.0919502265931244 -0.0119087964670181 0.3605268728934288 -0.0111824555383682
1455210122099904256 0.0993351549853671 -0.1126584372605237 -0.0919504969039751 -0.0055185413031578 0.3613890660615921 -0.0094688057001114
1455210122115866624 0.0988691084525059 -0.1130339389794832 -0.0919718408085315 -0.0086122987608910 0.3609999708824158 -0.0116327712021828
1455210122131747072 0.0992407978563650 -0.1129655929448480 -0.0920694083782277 -0.0162617356556892 0.3667296695491791 -0.0126348942345619
1455210122147904000 0.0988773216413078 -0.1126538792603180 -0.0918644608217990 -0.0060396729629517 0.3658301230941772 -0.0114696288046837
1455210122166729472 0.0991235082472163 -0.1132789897471869 -0.0921096048001408 -0.0118301993156433 0.3677067656923294 -0.0144053689528465
1455210122181221888 0.0992969439500466 -0.1129159795853203 -0.0918257411227103 -0.0130723784738541 0.3609063164471626 -0.0131026239745140
1455210122195995136 0.0986668413677144 -0.1130213448906882 -0.0920396422267239 -0.0103403138091087 0.3609301088261604 -0.0144508213749886
1455210122211766272 0.0989831516682859 -0.1128009802947091 -0.0918677977626449 -0.0104533276093483 0.3624440672821999 -0.0127662199365616
1455210122227746560 0.0990180164416967 -0.1126798890231042 -0.0920617997269933 0.0132199959699631 0.3629772634737968 -0.0060043023743629
1455210122244098048 0.0989048920164928 -0.1105923528920986 -0.0912435820979023 0.0516023406095505 0.3525388248060226 0.0155657337512016
1455210122259935744 0.0974905737142871 -0.1072582656233373 -0.0849926942768426 0.0532211950258255 0.3415356164122582 0.0190851914869308
1455210122276023808 0.0940549161447113 -0.1038625048700520 -0.0768582711274385 0.0358719119707108 0.3563792177924156 0.0175171577418327
1455210122292645120 0.0892767883643986 -0.1031083043072443 -0.0680593240386128 0.0319200389695168 0.3803926302356719 0.0125597574527740
1455210122307826432 0.0798080842246094 -0.1012680972782548 -0.0587918856350453 0.0116668698711395 0.3967866081236839 -0.0041121161701202
1455210122324219648 0.0654685942722810 -0.0982683126263895 -0.0444922418989466 -0.0441386787998199 0.4600251990097046 -0.0126948989136696
1455210122339721216 0.0460848628308747 -0.0938793765446199 -0.0250763594452803 -0.0615504542592049 0.4319592074579239 -0.0397563545267105
1455210122356032256 0.0221860413668616 -0.0854726678106243 -0.0095464231698809 -0.0693233608818054 0.4116537961311340 -0.0591983755845070
1455210122371817728 -0.0027547791579001 -0.0710801836157644 0.0033693142320803 0.0131340665760040 0.3967010154143333 -0.0458109164312363
1455210122387904512 -0.0257897031222245 -0.0504156155007288 0.0141100093559380 0.0712114881660461 0.3916424788098335 -0.0148248592702866
1455210122403813120 -0.0443257610413030 -0.0283452192410428 0.0201294178782090 0.0795825524049759 0.3843060837821006 0.0029009868146896
1455210122420283136 -0.0595923399796655 -0.0118543425389934 0.0208759924792353 0.0736472329659462 0.3931552027556419 0.0012058172204971
1455210122436284928 -0.0754427583974839 -0.0020087225417059 0.0182117448194313 0.0651731245321274 0.4035943147926330 -0.0047742812714577
1455210122451886336 -0.0903836939872348 0.0035491828005237 0.0139430944030367 0.0665758648391724 0.3899213845007896 -0.0171197202662468
1455210122467755264 -0.1050669367835874 0.0084700679994896 0.0111514610903915 0.0720128723529816 0.3791473273924827 -0.0140023013624191
1455210122483700736 -0.1182628627006748 0.0181147351819835 0.0131693728694387 0.0859916993163109 0.3878950855941772 -0.0097664348939896
1455210122499774720 -0.1297771515263981 0.0336534412468525 0.0180663695134266 0.0844834083845138 0.3906853779914856 -0.0057441012861252
1455210122515790336 -0.1388465359660186 0.0500373920311352 0.0242923820783244 0.0720089443658829 0.3986825539727211 0.0125467389812469
1455210122531838720 -0.1436246717358146 0.0655752059370390 0.0302179434669421 0.0535274470866203 0.4053635737053871 0.0287643502485275
1455210122547748864 -0.1457614616996008 0.0749864217499572 0.0352651370700883 0.0319462068454742 0.4038369147577285 0.0449775285017967
1455210122563772160 -0.1435251813638115 0.0808485160150567 0.0381251110910466 0.0468866424599647 0.3932623058705330 0.0380047902606010
1455210122580014336 -0.1403681663443490 0.0901769927392283 0.0388300298578824 0.0756353181694984 0.3855146318888664 0.0407830181261063
1455210122595969536 -0.1350755531256882 0.1005785955509695 0.0372814030155819 0.0818363378787041 0.3904311062932968 0.0425101914628029
1455210122612849408 -0.1279606559521742 0.1106132174276588 0.0340884979056890 0.0712933586400032 0.3942691050780296 0.0488927589947700
1455210122627700992 -0.1192278085216043 0.1182305985040685 0.0290073103828085 0.0673330311141968 0.4043148946735381 0.0506766262785912
1455210122643974144 -0.1079860063491345 0.1207386890501946 0.0229131176339669 0.0573829721756935 0.4261716925620079 0.0486728291266441
1455210122659998720 -0.0976118074650103 0.1221567956990509 0.0181967805172662 0.0512994928042412 0.4358661891779900 0.0415630041357040
1455210122676047872 -0.0855441337384766 0.1222474630183626 0.0151460642411337 0.0383835043310165 0.4366631964650154 0.0358819376901627
1455210122691736576 -0.0746600473636263 0.1237896143844726 0.0142207222887748 0.0477880780897140 0.4250252814702034 0.0325961016633034
1455210122707752960 -0.0649734274044804 0.1255368504598074 0.0130838587668363 0.0535563084394455 0.4149566347307205 0.0258702467636108
1455210122723821056 -0.0561055443908380 0.1272835752082130 0.0113593660872107 0.0697924934742928 0.3895802294689178 0.0263608897616386
1455210122739914240 -0.0501989646828898 0.1289313542010582 0.0113184199854508 0.0716859141887665 0.3736050498244285 0.0196419743058205
1455210122755862784 -0.0448167320988062 0.1304982995969169 0.0120008323779143 0.0853688889047623 0.3585253016008377 0.0163836715980530
1455210122772622080 -0.0398558195886564 0.1325300944347267 0.0120061440527085 0.0785378574743271 0.3536629211901665 0.0154891567074776
1455210122787933440 -0.0335452210327961 0.1340630792003646 0.0112187205553020 0.0561542791065216 0.3605818273034095 0.0197563535491943
1455210122803946752 -0.0275097603070546 0.1365031765806999 0.0128290808032511 0.0256757739928246 0.3810150852579117 0.0163372652361870
1455210122819895296 -0.0230992046835556 0.1374270844208118 0.0163794633578459 0.0216032182641983 0.3840286182553291 0.0206586870045662
1455210122835874816 -0.0211264920745293 0.1364478067984761 0.0213199867066901 0.0384968922252655 0.3941269867638588 0.0155889275797844
1455210122851846400 -0.0194345845024214 0.1341380312060838 0.0261985169916793 0.0514603906376839 0.3893383028730392 0.0268082687874794
1455210122868111104 -0.0163830586253175 0.1314360598694388 0.0288155574580006 0.0534285179258347 0.3977668840659142 0.0182184717812538
1455210122883734784 -0.0137249655307927 0.1310969196204227 0.0307348497187211 0.0541811202539444 0.3938921118400573 0.0084266171993256
1455210122900014848 -0.0127463217407964 0.1357492290181958 0.0314548433089073 0.0407078813443184 0.3874617537983894 -0.0037737294339180
1455210122915836928 -0.0148820930454656 0.1419758208206306 0.0321720765326236 0.0255210300058365 0.3880682911205292 -0.0138858271925926
1455210122931866624 -0.0217475199354470 0.1460521603799690 0.0314076188048774 0.0017494506349564 0.3894676458767891 -0.0061948658627510
1455210122948184832 -0.0346292327913214 0.1477047836628371 0.0284313432075349 -0.0017254337995529 0.3841402479077339 -0.0042508302288055
1455210122963904000 -0.0499116761802975 0.1501372897024851 0.0232548571282070 -0.0068357076055527 0.3845398738332748 -0.0103102927648544
1455210122979763456 -0.0671375959958531 0.1532789808930352 0.0174624737678013 -0.0223141839290619 0.3754262703950882 -0.0200714903427124
1455210122996081408 -0.0841786990896599 0.1553132804338502 0.0135958395021791 -0.0267264357229233 0.3734175913163185 -0.0103637133893967
1455210123013813760 -0.0993099241971997 0.1540320948861182 0.0108329669977262 -0.0300985191236496 0.3840772878859520 -0.0006591349398613
1455210123028295680 -0.1133111780437021 0.1521340027192553 0.0100321078526203 -0.0134301432797432 0.3838770914768219 0.0177540714779854
1455210123043680768 -0.1253606876800209 0.1482603683347078 0.0091200617320036 0.0056752118742943 0.3798106147758484 0.0255951754384994
1455210123059738112 -0.1344046868681307 0.1440204441054113 0.0067783575013024 -0.0086388594355583 0.3863503953152657 0.0223537069611549
1455210123075800832 -0.1423485581783787 0.1406871957323935 0.0020965988681952 -0.0130734072323799 0.3904779989773750 0.0122248684955597
1455210123091662848 -0.1495302620794179 0.1390198518265999 -0.0031318081997448 -0.0162795051211357 0.3852274025084496 0.0052666451019287
1455210123107949568 -0.1559499224082391 0.1378492766800027 -0.0072530606392868 -0.0150860704123497 0.3829628431272507 0.0032517560626030
1455210123123958784 -0.1615552320178721 0.1371825276694904 -0.0097277032137021 -0.0175584951298714 0.3741096652337074 0.0020806547661781
1455210123139919104 -0.1667516571842814 0.1357577870863587 -0.0107202513677497 -0.0167193648573875 0.3611961457809448 0.0081440452893257
1455210123155756032 -0.1705884334193423 0.1320585245057647 -0.0110994362384968 -0.0338714629601479 0.3812286181184769 0.0092816838766098
1455210123172831232 -0.1765113116731618 0.1289064083711275 -0.0094083142989105 -0.0387103876764297 0.4082455939538002 0.0082224366889954
1455210123188394496 -0.1832396776460617 0.1283272520604485 -0.0077198675046392 -0.0206870807398796 0.4242113090198517 -0.0013146598725319
1455210123204049408 -0.1914147033494452 0.1326627278464959 -0.0055733250449411 -0.0048117280817986 0.4439249223284721 -0.0141356658767700
1455210123219762688 -0.1983009002327682 0.1411594407726917 -0.0028314875183582 0.0097147912159920 0.4308872036645889 -0.0204161244488716
1455210123235830272 -0.2042044639107819 0.1509190340088670 0.0006177881254517 0.0119380319138527 0.4208069413061142 -0.0152546745823860
1455210123251698688 -0.2083762857846829 0.1605657558201419 0.0065420059492995 -0.0009175777862549 0.4095627415514946 -0.0120287497111320
1455210123268183808 -0.2121876594576859 0.1694762600638699 0.0120429302968457 0.0109535848234177 0.4043424279926300 -0.0072002809224129
1455210123283798272 -0.2152633455321990 0.1779373465525832 0.0158012604588372 0.0072102318230629 0.4038811887837410 -0.0076407766184807
1455210123299653888 -0.2170654573733755 0.1842169179501635 0.0188669516897792 0.0014134581004143 0.4008376160373688 -0.0076084923054695
1455210123317106944 -0.2167889453521342 0.1884832953585678 0.0206697905739332 -0.0109416138151169 0.3909449057105064 -0.0085650132781029
1455210123331704576 -0.2158558123220062 0.1913624001972166 0.0219746236605646 -0.0248293675918579 0.4080875205301285 -0.0034025533577919
1455210123347719424 -0.2150557494620662 0.1937712879927373 0.0202945525079216 -0.0429582625625610 0.4069435597540855 -0.0121162315952301
1455210123363691776 -0.2133843429040298 0.1964171957936945 0.0174638626063098 -0.0486403577666283 0.4118507753317833 -0.0246331926933289
1455210123379799040 -0.2115056039288085 0.1973522782577403 0.0137627238287278 -0.0563270918341637 0.4092401789918899 -0.0175645367481232
1455210123396175872 -0.2081619026485120 0.1957191959193707 0.0089999012351998 -0.0565043001664162 0.3998561991084099 -0.0227598982365608
1455210123411776768 -0.2032286590505076 0.1921799533676157 0.0045518496351331 -0.0485535305470467 0.3887691749518394 -0.0282622599738121
1455210123427887104 -0.1964195580175813 0.1886096956418057 -0.0007222426297268 -0.0377384914400101 0.3692335555728912 -0.0275899756295204
1455210123443782912 -0.1895559380823995 0.1859584788292154 -0.0049114695929319 -0.0275160920626640 0.3522613218698501 -0.0240752127736092
1455210123460312320 -0.1830440484902872 0.1841454640065362 -0.0081107303367663 -0.0297871232702255 0.3414379030570030 -0.0173012867937088
1455210123476057600 -0.1762881986949376 0.1814185521662826 -0.0104618714787902 -0.0202490540642738 0.3362066472483635 -0.0197460098498344
1455210123491896320 -0.1697104105132319 0.1774332900530639 -0.0116086206546951 -0.0338558819446564 0.3378652678578377 -0.0227440179458618
1455210123509157888 -0.1632452966825057 0.1727312740851251 -0.0121452422880239 -0.0446114213994980 0.3470138864953041 -0.0279747500228882
1455210123525767168 -0.1565283183864269 0.1680061152473135 -0.0119299776455322 -0.0454369346500397 0.3463438841244698 -0.0243795569549561
1455210123539669504 -0.1516027180607510 0.1638497769919902 -0.0109495761692164 -0.0232941605960846 0.3475395633973121 -0.0193224793170929
1455210123556296192 -0.1477405259478270 0.1598827575322386 -0.0080377983387339 -0.0116388315251350 0.3454867973395347 -0.0183376020185471
1455210123571819008 -0.1477248852027450 0.1580294637296524 -0.0047340098536945 -0.0017433529026031 0.3501768700494766 -0.0224793838436127
1455210123589007616 -0.1485946003778349 0.1572260053393226 -0.0004706977437050 0.0071201312808990 0.3401828550648689 -0.0198122618988991
1455210123605823488 -0.1508204850643091 0.1554846588447385 0.0033410913824282 0.0048017958858490 0.3255332401332855 -0.0203151938851356
1455210123620221184 -0.1534046900859702 0.1539241503092346 0.0066436508186245 -0.0022395886060715 0.3199692838173866 -0.0168448921022415
1455210123636365568 -0.1545765661867600 0.1511500832071395 0.0089546274966684 -0.0097551185502052 0.3077751658493996 -0.0147622920472145
1455210123652179456 -0.1535405179594670 0.1472425600977208 0.0120400767197377 -0.0266550959953308 0.3077578640014648 -0.0108481464268684
1455210123667927296 -0.1514440415966819 0.1425222495446736 0.0160342790647358 -0.0229987759662628 0.3063439382835388 -0.0031757027504921
1455210123683795200 -0.1494675859147434 0.1389937275478868 0.0208316468523439 -0.0060366615061760 0.3151321173429489 0.0002022539261818
1455210123699812608 -0.1496230293012492 0.1362581404603823 0.0257320669899130 0.0028679917230606 0.3109849298594474 -0.0062810571225166
1455210123715992064 -0.1524252686529356 0.1330944409065837 0.0284973842762466 0.0047845127426147 0.3256804835353851 -0.0083931544901848
1455210123731897600 -0.1543469111533181 0.1289141781436078 0.0294163998894361 -0.0060747442763329 0.3324556627302169 -0.0049395185954094
1455210123747758848 -0.1555623978485385 0.1221295102821024 0.0283357663507535 -0.0279585143428802 0.3343158264872551 -0.0021711106976509
1455210123764951808 -0.1544905660572586 0.1150022320726806 0.0259904948157722 -0.0295054678905487 0.3417061658711433 0.0003935094884872
1455210123779958528 -0.1519629598666644 0.1086309600492856 0.0243420100852380 -0.0279891713469505 0.3387803018048287 -0.0004188917670250
1455210123796329984 -0.1490864436205951 0.1040326222741641 0.0226857542506430 -0.0099201127130508 0.3262041777391433 -0.0039717560977936
1455210123812073984 -0.1448414354167777 0.1006311636877265 0.0230310184385858 0.0003436801664352 0.3166353205962181 -0.0120513823987007
1455210123827819008 -0.1395758705937283 0.0990596629548233 0.0258375761059798 -0.0010689549271584 0.3182853370434761 -0.0127793693409920
1455210123844646912 -0.1327099150662705 0.0978490298706896 0.0284321461506035 0.0011580454154968 0.3126740765400887 -0.0101670521686554
1455210123861274368 -0.1246262038303436 0.0941726891175979 0.0311969481152662 0.0028450971696854 0.3315717721095085 -0.0062640171403885
1455210123875904000 -0.1162915096353849 0.0896210192458384 0.0335430545512493 0.0072892965919495 0.3391322307441711 -0.0028331822754860
1455210123892073728 -0.1078789752365048 0.0860132588855579 0.0355684338339931 0.0125958388199806 0.3442347420994759 -0.0132663088083267
1455210123907994880 -0.1005837168097457 0.0830600129737418 0.0375049860417384 0.0147252941496849 0.3412412792456627 -0.0209478055597305
1455210123923809792 -0.0941412318588019 0.0819701369344961 0.0387836961812372 0.0034034885928154 0.3528017567805290 -0.0277611049341202
1455210123939791872 -0.0901642814713453 0.0814694573232390 0.0386187359885760 -0.0050036196039200 0.3576076864051819 -0.0376357278156281
1455210123956167936 -0.0883628154467332 0.0805313601608392 0.0377228432715512 -0.0234424327567101 0.3705639460985183 -0.0458723987816811
1455210123972086272 -0.0887354169832657 0.0793470191345673 0.0349503820555935 -0.0232511771944046 0.3962105968727112 -0.0439707292943001
1455210123987887104 -0.0912033763549253 0.0777866863676953 0.0327352019451208 -0.0361955032888412 0.4123798190798759 -0.0516583424827576
1455210124005914624 -0.0985610126723169 0.0775058826623574 0.0314949877991791 -0.0303164849982262 0.4218231863873481 -0.0658046326293945
1455210124020430848 -0.1092699575896586 0.0793336727027644 0.0329499952080995 -0.0249793418802261 0.3981726264285088 -0.0831053582820892
1455210124037249024 -0.1229181961178656 0.0820759789456991 0.0365676651907963 -0.0054959647296906 0.3788454896409988 -0.0946767219526291
1455210124054334976 -0.1344583136114211 0.0887022579645331 0.0396014637361040 -0.0061129579793930 0.3919331685598373 -0.0793450962325096
1455210124068397056 -0.1446706295855238 0.0979834049898118 0.0414475110773640 0.0080145526479721 0.3902535051623344 -0.0622857173299789
1455210124083792896 -0.1514818691368054 0.1056173069860437 0.0429292140130514 0.0087302318973541 0.3846661305614471 -0.0400388890273094
1455210124099779072 -0.1574566856897842 0.1100158650688318 0.0451146412878257 0.0004188543576241 0.3875309050760269 -0.0257966998813629
1455210124115889664 -0.1616241026952421 0.1113866646556645 0.0471916659220089 -0.0062279918872833 0.3742297307060242 -0.0118672907366753
1455210124133171456 -0.1630715973267275 0.1116648597947147 0.0487214801943691 -0.0076116908092499 0.3705538455602645 -0.0108984807758331
1455210124147931392 -0.1630743643511000 0.1115441413656625 0.0489033368125662 -0.0134003092824936 0.3688955803400993 -0.0148527853880882
1455210124164116480 -0.1633408988393173 0.1114022481427831 0.0490564033277991 -0.0074671408840179 0.3583604570755958 -0.0117726449522972
1455210124180403968 -0.1637065987938848 0.1116297966158027 0.0488977867848545 -0.0027068694332123 0.3631240953724861 -0.0118144873672485
1455210124196012544 -0.1638916884896453 0.1110868606275294 0.0491854894089963 -0.0054231847401619 0.3593184183101654 -0.0153885067142487
1455210124212539392 -0.1632996624529986 0.1116171146426918 0.0490690160587217 -0.0112114291193962 0.3661557719293594 -0.0155458132452011
1455210124228544000 -0.1638350949849006 0.1114139460778713 0.0490155704103854 -0.0116678051061630 0.3672309368170738 -0.0117380599611282
1455210124243910656 -0.1636832175710945 0.1116281015137689 0.0484510308593493 -0.0047101241488457 0.3683782644392014 -0.0101474683472633
1455210124262853888 -0.1634845444221941 0.1112253396778913 0.0486736831107049 -0.0125560352173805 0.3625413130199432 -0.0126819552609444
1455210124276888576 -0.1639030948085942 0.1115755506875589 0.0491322181977114 -0.0089022029134750 0.3650662792410850 -0.0131121072576523
1455210124295416064 -0.1638817495724572 0.1114471450440202 0.0489396623298349 -0.0025132009645462 0.3651253673898697 -0.0115476461103439
1455210124308344576 -0.1640888130103719 0.1109481618663775 0.0488706358575411 -0.0033306898985863 0.3595032768649101 -0.0082007579411507
1455210124323794688 -0.1635146181688037 0.1114580094096872 0.0487398200532159 -0.0122084644732475 0.3685898707156181 -0.0142133652025223
1455210124340179712 -0.1639052426480133 0.1113375546335829 0.0489346422711801 -0.0039684266611099 0.3579267698904991 -0.0113058317426681
1455210124356336128 -0.1636168089861523 0.1115317643244964 0.0492894352495032 -0.0055289411166191 0.3584906043814659 -0.0124130564869881
1455210124373190144 -0.1637426526687223 0.1114956132442791 0.0493911946347551 -0.0089753757017136 0.3561301272962570 -0.0116127945820808
1455210124388405504 -0.1636970793245683 0.1111800100129771 0.0493178218835623 -0.0067364230554581 0.3644835904120445 -0.0138315461518288
1455210124403991808 -0.1633012230653973 0.1112797121062869 0.0489846737469989 -0.0072725371803284 0.3620568799824714 -0.0120142722729683
1455210124421021952 -0.1636054026672035 0.1116724884196573 0.0490680866155013 -0.0081541271228790 0.3671358608245849 -0.0127427455374718
1455210124436355584 -0.1631249590854894 0.1116963010745442 0.0484614411560505 -0.0050535985635757 0.3631721290432929 -0.0118547772920608
1455210124451929600 -0.1630913060503746 0.1115843604244449 0.0489205434963692 -0.0173215813937187 0.3580177682582855 -0.0164288060402870
1455210124467890688 -0.1617907539951955 0.1093068437023368 0.0473915880934606 -0.0443567194931984 0.3368999930853843 -0.0291940720371246
1455210124483832832 -0.1597189864410041 0.1073774008031215 0.0448301850570527 -0.0598790209299087 0.3404646413774490 -0.0451873952410698
1455210124501281792 -0.1562630382470830 0.1047647612105016 0.0426549989682503 -0.0590337742203712 0.3386480595725059 -0.0506719688081741
1455210124515881216 -0.1541671251428685 0.1034896503332160 0.0405658316510770 -0.0531944473041534 0.3473342044908523 -0.0507976831000328
1455210124531778816 -0.1536385742192232 0.1032053432394640 0.0394253302510894 -0.0471387444128990 0.3571425379138946 -0.0488791980869293
1455210124548288512 -0.1541533938842880 0.1048414309551239 0.0386018368998789 -0.0138541040205956 0.3531998676253319 -0.1056961099123001
1455210124563803648 -0.1576967816462797 0.1104075201913833 0.0365978627743967 0.1088802297780037 0.3226452156760216 -0.0948413981355667
1455210124580733952 -0.1646784129072657 0.1155903685625553 0.0378096623230878 0.1351544419576645 0.3059442562438965 -0.0872846991456985
1455210124596232960 -0.1736022076564137 0.1184062153358316 0.0425985412847212 0.1504528107203483 0.3018430823235512 -0.0941870515990257
1455210124613073408 -0.1856895807855307 0.1192277978689599 0.0480570374813609 0.1148275763394356 0.2840739348569870 -0.1056234047415733
1455210124629482240 -0.1999504608803827 0.1162266776418080 0.0515525855491109 0.0989046763327598 0.2870878419484138 -0.1082430541564941
1455210124644716800 -0.2152552335435186 0.1121241898353067 0.0514679036843491 0.0883611172483444 0.3146473663255691 -0.1076197387180328
1455210124660078336 -0.2297531762543846 0.1083746600891374 0.0501060176976849 0.0894884308409691 0.3232358540027618 -0.0883782694586754
1455210124676174592 -0.2413451814470387 0.1044513111449409 0.0485315102559110 0.0817517178137779 0.3400219946408271 -0.0832500952543259
1455210124692046336 -0.2489733230258328 0.1038978290387508 0.0468272496110868 0.0669549904129982 0.3571674712796211 -0.0875257653253555
1455210124707962624 -0.2520551530129807 0.1061320307773093 0.0452064883875004 0.0500308090854645 0.3725599246856690 -0.1010807998901367
1455210124724083712 -0.2513042600962468 0.1131526334061070 0.0429600560816356 0.0351068710167885 0.3757259384013176 -0.1153971157640457
1455210124739711232 -0.2469976902606712 0.1223848768042885 0.0390205244390752 0.0272975463423729 0.3601213175778388 -0.1079099608505249
1455210124758176256 -0.2397822587560066 0.1309314214692214 0.0346154749011300 0.0248135621199608 0.3490111931161881 -0.0952031283379555
1455210124774892544 -0.2302805127765729 0.1366036696328535 0.0291428546296491 0.0042677018686295 0.3331647579250335 -0.0762784792951584
1455210124788339200 -0.2200439993208057 0.1385703621662358 0.0253064911845573 0.0185103960414886 0.3205256364281654 -0.0634506834846496
1455210124803812864 -0.2110304147639251 0.1385998966227248 0.0218349701561619 0.0264727999845505 0.3239130202738761 -0.0655973845481873
1455210124820074240 -0.2020856596054176 0.1369664108154499 0.0198462998858838 0.0356739788303375 0.3268072172822952 -0.0863295623209000
1455210124835956480 -0.1930181140785298 0.1370225901986452 0.0172064414553428 0.0499949334699631 0.3252513977066040 -0.1043790371334076
1455210124852114432 -0.1837975579627920 0.1336011712198375 0.0148100984801369 0.0407419238991737 0.3041657385044098 -0.1060920323071480
1455210124868056576 -0.1728603548400001 0.1280419795708014 0.0112433654480296 0.0333940067759514 0.2920130514479637 -0.0993269910599709
1455210124883792128 -0.1609108229341640 0.1205103216551397 0.0077797513449107 0.0223685959027290 0.2611676162251472 -0.0937988355407715
1455210124899786240 -0.1466687673934772 0.1127097497168268 0.0024309720588601 0.0007878419837952 0.2584452780046463 -0.1017010664624214
1455210124917297664 -0.1317834679020592 0.1050173886715065 -0.0032525758972772 -0.0008825625869751 0.2550354672230720 -0.1030810244442940
1455210124932163328 -0.1172388892457642 0.0989498634862404 -0.0075967895148612 0.0036453216651917 0.2575491919192314 -0.1104684458949089
1455210124948451072 -0.1048243707451808 0.0920962370630491 -0.0100295006179131 0.0253140437904358 0.2770525830992698 -0.1110871786817551
1455210124963757312 -0.0928617720394562 0.0834399515190774 -0.0114734306082794 0.0300025827149391 0.2843737150914192 -0.1067660935979843
1455210124979761408 -0.0829422266850497 0.0739113635390167 -0.0115587036948032 0.0341975981175423 0.2986662385863304 -0.1065056306439400
1455210124996359936 -0.0738772524401944 0.0655601590768801 -0.0094506598918233 0.0248509341114998 0.3200119305344581 -0.1105539450807571
1455210125011932416 -0.0665443688735547 0.0574037422116135 -0.0056731842647553 0.0231443359453201 0.3434013167606354 -0.1140585325796127
1455210125028506368 -0.0593136894400689 0.0496737493685098 -0.0002913857759294 0.0324362325883865 0.3643516661596298 -0.1039908771892548
1455210125043769600 -0.0533628852790588 0.0430137187776007 0.0073134784433569 0.0294420215465546 0.3724712269960403 -0.0922832684804916
1455210125059905024 -0.0476252365369570 0.0397352103492089 0.0155253236803913 0.0262854349999428 0.3745820524440765 -0.0915749588830948
1455210125076337408 -0.0442234676922525 0.0386856519057059 0.0241954363567428 0.0227578407195091 0.3730397002527236 -0.0900459992572784
1455210125091776000 -0.0417612980328026 0.0399712396587199 0.0318744509702601 0.0304249161468506 0.3837252841278076 -0.0959721346883774
1455210125107824128 -0.0405841262361853 0.0423767638817838 0.0390306124932844 0.0387164479993820 0.3902421327044487 -0.0982788357597351
1455210125123830784 -0.0416645786799137 0.0448231609696776 0.0450703462609950 0.0442042574796677 0.3897565586802482 -0.1037901196391106
1455210125139809536 -0.0445890358203460 0.0467431110311874 0.0515621103447496 0.0411639393511772 0.3986800662475586 -0.1073435825202942
1455210125156861184 -0.0489691848020990 0.0486229285866502 0.0570713770444105 0.0401079654861450 0.3937648824674606 -0.0983173300333023
1455210125174039040 -0.0551554377035024 0.0523517682343106 0.0633723642518967 0.0289663048995018 0.3853135189494133 -0.0990549873057365
1455210125187780352 -0.0618509708949033 0.0575289760302939 0.0685657627357271 0.0189320186947823 0.3768735091845512 -0.1026762921355247
1455210125204077824 -0.0687885534714594 0.0634980920869593 0.0727034748423864 0.0238453320048332 0.3607025848496437 -0.1056034094167709
1455210125220235008 -0.0728440205057542 0.0678443137280052 0.0741898383099814 0.0212781118653297 0.3458769773913383 -0.0981696003089905
1455210125241136896 -0.0749317270790697 0.0702041900384046 0.0743615775791973 0.0281082828795433 0.3396453754968643 -0.0819337893681526
1455210125251845888 -0.0763666822165624 0.0707810080936465 0.0739334544602589 0.0246186965504646 0.3388618542988777 -0.0740210838142395
1455210125267678208 -0.0768307593417974 0.0713145191548221 0.0730458122162912 0.0242914391110420 0.3236321317869186 -0.0703637350266457
1455210125284102400 -0.0755429385282094 0.0711616616977348 0.0705429867396401 0.0190155351823807 0.3291808624766350 -0.0751357530293465
1455210125299670016 -0.0739468767921529 0.0731704348395014 0.0673700540063423 0.0289921360908508 0.3235242804840088 -0.0862228894141197
1455210125316011264 -0.0726656339864574 0.0773471848929995 0.0637536969620630 0.0293037002865791 0.3173004597449303 -0.0878922091122627
1455210125331839488 -0.0725571115036173 0.0814298281546381 0.0612813740009572 0.0309814558046341 0.3074291475954055 -0.0756357109682083
1455210125347780096 -0.0733459824290762 0.0852232348113470 0.0599630480086629 0.0256511586070061 0.3121339783140182 -0.0679360145432472
1455210125364178176 -0.0753344289938227 0.0869158694264324 0.0595555044670481 0.0168975084246635 0.3249841449462891 -0.0542457636987686
1455210125379748608 -0.0748283791182275 0.0867434936617160 0.0582762603637507 0.0084446298258781 0.3351691723320961 -0.0432912249356270
1455210125395860224 -0.0732167605266633 0.0862798772633495 0.0562923211991491 0.0152213053967476 0.3311638787063599 -0.0356294616432190
1455210125412169984 -0.0699432521832181 0.0862213716089421 0.0538826903816843 0.0148349785132408 0.3399863995958328 -0.0340382340695381
1455210125427707648 -0.0679341421515736 0.0865306405115914 0.0523823905921049 0.0145084505571365 0.3407223360358238 -0.0346598473802567
1455210125443968512 -0.0676264551666118 0.0879550149100732 0.0514244914954197 0.0165432039883614 0.3439021725251197 -0.0347940910155296
1455210125460421120 -0.0681539821048180 0.0896343536934165 0.0507736495460985 0.0174702837624550 0.3472014946410179 -0.0376052765632629
1455210125476109056 -0.0690285096119977 0.0904423168207301 0.0495961328701200 0.0214115511984825 0.3542220046872139 -0.0327385005479813
1455210125492300800 -0.0708090578378278 0.0901823590088248 0.0491055253341056 0.0226269265209198 0.3599170248393058 -0.0230080534976959
1455210125508464896 -0.0731494584511754 0.0885259487108866 0.0494834558559793 0.0232937303879738 0.3487797037431717 -0.0100746883577347
1455210125525344256 -0.0761259044908277 0.0870939616664288 0.0509029833012771 0.0134927853216171 0.3520812704231262 -0.0138833581721306
1455210125540054016 -0.0800816334791380 0.0858426501282247 0.0535391878748026 0.0126364093153000 0.3517763276913642 -0.0170604824798584
1455210125555915776 -0.0850109169566015 0.0856412352549820 0.0565983530294933 0.0098733883712769 0.3586608732698440 -0.0271846634750366
1455210125571799040 -0.0891821529350626 0.0873176392348040 0.0590677611607860 0.0005748328548431 0.3521386003300667 -0.0363189730166435
1455210125588650240 -0.0935266608319470 0.0887804084267215 0.0605814832822595 0.0089605054648399 0.3419042112397194 -0.0342647105828285
1455210125605430784 -0.0959996908623223 0.0902887802575649 0.0603253564275822 0.0057443070378304 0.3396319268172264 -0.0250748293761253
1455210125619911168 -0.0975157632234577 0.0899040200590757 0.0601063700174671 -0.0004989665897369 0.3299475681488990 -0.0134593413171768
1455210125635789824 -0.0990134144993330 0.0878813212479691 0.0598222373607666 -0.0092412817235947 0.3205921690477371 0.0021256582755089
1455210125652768000 -0.1010977441843862 0.0849484631658780 0.0598956420698924 -0.0088097081696510 0.3257377199188232 0.0060254760952950
1455210125667983872 -0.1031954029906953 0.0828306482248587 0.0615065722343148 -0.0007027917107582 0.3293917579744339 0.0041967362350464
1455210125683753984 -0.1046826559540944 0.0822144366907724 0.0623191759198280 0.0058148611680031 0.3271556484426498 0.0017828759346962
1455210125699798528 -0.1077773729777572 0.0829848532414576 0.0635455376333597 0.0011431003598213 0.3236693728455544 -0.0081480855046272
1455210125715833856 -0.1095791852133110 0.0838689641338199 0.0652871850651469 -0.0007656020949364 0.3169506257320404 -0.0090722099360466
1455210125732034048 -0.1117727164872824 0.0838475163659809 0.0660662009629920 -0.0084597432238579 0.3146715327985763 -0.0052816649764061
1455210125747698944 -0.1129886226303744 0.0824721201631068 0.0650620108002391 -0.0175427644767761 0.3130422037500382 0.0023144448173523
1455210125763778048 -0.1130264927810754 0.0803721111171357 0.0635508439818316 -0.0091756656343460 0.3225209603507996 0.0092722754122734
1455210125779792640 -0.1144662322874664 0.0796777930630190 0.0630845883908249 -0.0153499189171791 0.3391549195458412 0.0010642039332390
1455210125796407296 -0.1167427303504575 0.0792706103797318 0.0632527896505327 -0.0208213804892540 0.3416898553723335 -0.0080409449803352
1455210125812221440 -0.1185743180585790 0.0787089710111228 0.0627697361709503 -0.0243654349061012 0.3398433834560394 -0.0063748237859726
1455210125827716352 -0.1182828164351422 0.0775379471218819 0.0615666771169568 -0.0337261835515976 0.3486779501726150 -0.0063331871227264
1455210125843746560 -0.1173446087515571 0.0761540141561335 0.0595406413650043 -0.0314961904568672 0.3407938441057205 0.0010997802735329
1455210125861754624 -0.1157601131241148 0.0746512429530625 0.0570209367733644 -0.0366135907537460 0.3293259922475814 0.0021927707407951
1455210125875945984 -0.1151313514433915 0.0738030381300972 0.0556439040580004 -0.0405027281895637 0.3237394593582153 0.0026069115139008
1455210125892058624 -0.1153624299364360 0.0728946192348852 0.0537929272055626 -0.0433511922053337 0.3171389072469711 -0.0052798319157600
1455210125907804928 -0.1154250501747276 0.0724727092707699 0.0519791959925501 -0.0428724828062057 0.3210263612597465 -0.0042719852450371
1455210125923710976 -0.1145812781833967 0.0725156793749583 0.0492153687448465 -0.0442738763748169 0.3218501349731445 -0.0103655090406418
1455210125940137984 -0.1140321556719111 0.0724206338188145 0.0468093904528167 -0.0353339834898949 0.3267608857392311 -0.0145894980242729
1455210125956131072 -0.1140523730593264 0.0739237006327665 0.0468008923057783 -0.0475660345904350 0.3257989778128624 -0.0081967364305496
1455210125972040448 -0.1154201273214526 0.0754507438860125 0.0483520318405673 -0.0464205961430550 0.3270309629093170 -0.0014851719220161
1455210125987643904 -0.1188763138682913 0.0771371253988585 0.0524608499809797 -0.0485326373966217 0.3311188751970291 0.0025567829166412
1455210126004820992 -0.1218370579101565 0.0792990809033653 0.0557518406454008 -0.0336534409714699 0.3304936518791198 0.0096851255610466
1455210126019821312 -0.1247738814391106 0.0812544683179202 0.0584144797559063 -0.0240699754574776 0.3393601662240982 0.0066087447700500
1455210126036167680 -0.1286784178133669 0.0839319478936002 0.0608738451067283 -0.0271618811498642 0.3586269616478920 0.0056978445618629
1455210126051973376 -0.1321661095559012 0.0869797293662115 0.0638983878356675 -0.0228258510104179 0.3571988016529083 0.0047630023370743
1455210126067849472 -0.1365210623705809 0.0901046000313167 0.0672726102736368 -0.0233244248014450 0.3648500154942512 0.0085909379929543
1455210126083801088 -0.1416772937782382 0.0923116934531393 0.0710778653340355 -0.0255003613118172 0.3791224127314567 0.0027575404667854
1455210126101753600 -0.1461712116701787 0.0934237456347820 0.0755957490126257 -0.0283194589478493 0.3880631099184990 0.0020651111600876
1455210126116973824 -0.1511957098145153 0.0932642901960941 0.0803146187955231 -0.0370314537622452 0.3856362311466217 0.0063679778656006
1455210126131852288 -0.1540215461050404 0.0929854732089293 0.0833825723818111 -0.0310254305554390 0.3694526624341964 0.0046121302230835
1455210126147920640 -0.1560138183006929 0.0934793178172487 0.0864634316467416 -0.0328862863863945 0.3808414869328499 0.0079242463541031
1455210126164085760 -0.1572739129441720 0.0950005473898350 0.0889051149395060 -0.0258435925654411 0.3776518304758072 0.0097659485717773
1455210126181894400 -0.1571309464673733 0.0959196761873708 0.0912952114703751 -0.0345848789407730 0.3885053638564109 0.0102127477519035
1455210126195994112 -0.1563736832693120 0.0969906224775882 0.0930027078559238 -0.0326561624565124 0.3801785923481941 0.0065632923479080
1455210126212035840 -0.1551270003050824 0.0989048347585294 0.0938978682036488 -0.0354944137058258 0.3916170778265953 0.0014937012654305
1455210126227759104 -0.1536384676927796 0.1010162794182212 0.0948919916174812 -0.0345738431674957 0.3999422407305717 0.0033186253667831
1455210126244048896 -0.1522674950004760 0.1041712730984163 0.0969193775921064 -0.0145976719783783 0.3925320369547843 0.0096602109000206
1455210126260514304 -0.1510293980676009 0.1080781224280793 0.0989190933230056 -0.0179239662723541 0.4098900925144195 0.0084667013724327
1455210126276116224 -0.1486137738061029 0.1107175680686514 0.1000933529529710 -0.0233186076395988 0.4100272914923668 0.0077768533143997
1455210126292334592 -0.1459980103255244 0.1124125689023654 0.1011138136984037 -0.0276185751165390 0.4171738151056290 0.0021931822442055
1455210126308773120 -0.1421551407778895 0.1133859636018532 0.1004592087024623 -0.0307596367617607 0.4019008847355842 -0.0002607996386528
1455210126323716352 -0.1372285630720935 0.1135240098885380 0.0985245766338630 -0.0245130336975098 0.3888850131618499 0.0084273279779434
1455210126339765248 -0.1311907401224651 0.1135495735718416 0.0963081901114165 -0.0338973876749992 0.3867702036126137 0.0048371103603363
1455210126357958656 -0.1246726427018518 0.1126648075418512 0.0928655883492983 -0.0463467873950005 0.3793758240134239 0.0005718213980675
1455210126373249280 -0.1166356353219616 0.1120395252810920 0.0890265684010191 -0.0499336194618225 0.3739896745801926 -0.0052080058659554
1455210126389110016 -0.1077119164729047 0.1104202074908164 0.0838879178512980 -0.0507690836130142 0.3396331987368583 -0.0065156701805115
1455210126404072960 -0.0986444801356216 0.1084639745226154 0.0785702695868099 -0.0546276949776649 0.3190272028735160 -0.0059883098554611
1455210126420439808 -0.0902347966506885 0.1045054132624858 0.0733574060585721 -0.0420414890784264 0.3275796091835022 -0.0143159604846001
1455210126437360128 -0.0845840601707614 0.0991479720449898 0.0683621760546155 -0.0440858006115913 0.3332265769600868 -0.0238966951123238
1455210126451970816 -0.0811286805617330 0.0932124983707947 0.0657174973025014 -0.0347109673266411 0.3124093489143371 -0.0227557083836555
1455210126468018432 -0.0788171819041155 0.0885545643767995 0.0633729994158167 -0.0276503169932365 0.3062792761340141 -0.0280072026782036
1455210126483787264 -0.0777207598149104 0.0844585427254249 0.0632582824202810 -0.0314715750710487 0.2881924293299675 -0.0193574384022713
1455210126499912960 -0.0769956063501122 0.0811710035177766 0.0628846249403763 -0.0363884796835899 0.2791296652676582 -0.0063175499931335
1455210126517184256 -0.0755838979457748 0.0778807865016522 0.0621596552336933 -0.0355538385392189 0.2981135708015442 -0.0075335425706863
1455210126531926272 -0.0733296918726881 0.0748917969732656 0.0600466313194750 -0.0311771256762505 0.3172293257690429 -0.0112948333787918
1455210126547874048 -0.0722776407104049 0.0719235521381901 0.0562368808431563 -0.0221951659199715 0.3263644396127701 -0.0136624743642807
1455210126563932416 -0.0721360857089839 0.0689570703157563 0.0548537548152182 -0.0349291763623238 0.3386586277282715 -0.0130034516526222
1455210126580117760 -0.0732136965598292 0.0654653345631067 0.0544570277023708 -0.0364451549260139 0.3375505799771309 -0.0041223850506783
1455210126597268224 -0.0746486943078993 0.0628178901182006 0.0555216876008350 -0.0386713135571480 0.3407289387950897 0.0000828244136810
1455210126613061888 -0.0766249316106284 0.0605723779344925 0.0571042843944201 -0.0407602732103348 0.3429387495180130 0.0019294646722794
1455210126627944704 -0.0767069543090418 0.0589918983539740 0.0572202011440268 -0.0425318889153481 0.3454415132596969 -0.0033358898053169
1455210126643802880 -0.0767172780530075 0.0573586082890394 0.0555092413174805 -0.0290504386422157 0.3470495937685013 -0.0040737154200554
1455210126659931648 -0.0759565993508481 0.0554629955251513 0.0525741088958186 -0.0277213013315201 0.3432845994297027 0.0004932616560936
1455210126675796992 -0.0755898967161302 0.0529020359050650 0.0493705577994681 -0.0210759701673508 0.3471751958321571 0.0069431287003517
1455210126691788032 -0.0759601932867392 0.0514131570818203 0.0465347466390801 -0.0177513967058182 0.3439196614200592 0.0083984292157173
1455210126707828736 -0.0762747578852161 0.0488918918777816 0.0435448716096310 -0.0181726639698029 0.3468450578688621 0.0144374101047516
1455210126723722496 -0.0765547732948714 0.0469249836283511 0.0409592750863004 -0.0114414408210754 0.3620724235885620 0.0131500590949059
1455210126739857152 -0.0784591185639738 0.0469159075753561 0.0393277986340680 -0.0105949408966064 0.3797201775490761 0.0117092734271049
1455210126756182272 -0.0797444732903924 0.0463422440344254 0.0386610616077807 -0.0107135286975861 0.3860976386978149 0.0150109523352623
1455210126772166912 -0.0811849118765695 0.0461219886280509 0.0386666342723617 0.0014205845912933 0.3830644657649040 0.0173348617310524
1455210126787878656 -0.0842895984437730 0.0470392651970485 0.0397269385708631 0.0123232365153313 0.3821706616529464 0.0205662670795441
1455210126803753216 -0.0878796700880932 0.0485161997428041 0.0412362984344710 0.0160735102548599 0.3666864055769920 0.0181461407045364
1455210126819709440 -0.0908035133698943 0.0485004165186038 0.0425932948573737 0.0233750584256172 0.3554798209750175 0.0206859584578514
1455210126836046080 -0.0921344800563027 0.0489343333444937 0.0425166517443624 0.0171517427134514 0.3612403449881554 0.0110921866539001
1455210126852916480 -0.0918791628025968 0.0485633510099040 0.0399168113039414 0.0201962319901466 0.3460026168643951 0.0165940246595383
1455210126867740160 -0.0891701647154156 0.0485729290687645 0.0364473449043270 0.0165459909887314 0.3459942184538841 0.0151055794149399
1455210126884183040 -0.0879649991009999 0.0476070178519398 0.0351067229273866 0.0256070342185974 0.3448883404479980 0.0131827175019264
1455210126899830016 -0.0863714647048179 0.0492818052929801 0.0338612383856476 0.0127642746477127 0.3546460589515686 0.0034752772332191
1455210126915888384 -0.0857606340877141 0.0507047043002180 0.0343123898585319 0.0162899423439980 0.3466816536055565 -0.0049334021583557
1455210126931719168 -0.0860758591501413 0.0531181594170082 0.0348286462990049 0.0161599259710312 0.3442687472449302 -0.0084713214334488
1455210126947736064 -0.0852711876899349 0.0547540194323948 0.0348328128145303 0.0127628343857765 0.3421082047030449 -0.0136211369762421
1455210126967674624 -0.0847773843606124 0.0566931695537834 0.0347437340708088 0.0163376580348969 0.3355225228286743 -0.0098697409546852
1455210126980071680 -0.0843431932291303 0.0569729998737430 0.0355701475781545 0.0086359227975845 0.3378447675061226 -0.0084147958286285
1455210126996234240 -0.0831831881688996 0.0580667348334081 0.0355470313398927 0.0033892169063568 0.3464631827040672 -0.0009708113637924
1455210127012133376 -0.0819778720858822 0.0586023937340029 0.0359978725545100 0.0112963297548294 0.3559079528640747 -0.0018212018659592
1455210127027866624 -0.0815362640507642 0.0595435828264283 0.0391961292866134 0.0087105358477592 0.3621156875607491 -0.0017547253604889
1455210127043783680 -0.0837585255065754 0.0611941714542236 0.0434440443307606 0.0074179101123810 0.3614286077983856 -0.0092161613108635
1455210127060175872 -0.0864525939126855 0.0628651798696771 0.0487353299636180 0.0107962782924652 0.3608187410395622 -0.0059055976699829
1455210127076012800 -0.0901649672353260 0.0652642073112617 0.0540484335437059 0.0166867251550674 0.3523046232514381 -0.0037331963479996
1455210127092509952 -0.0938451922088676 0.0678267155595220 0.0585221646745837 0.0251831108871460 0.3592303004662514 -0.0034205098702431
1455210127108321280 -0.0975355118945211 0.0702616224388927 0.0621141644475331 0.0115136409648895 0.3674827769042015 -0.0007615057655334
1455210127124730880 -0.1023976490914204 0.0720132167773515 0.0657245360372625 0.0132951327517509 0.3710526999217987 0.0111343283440590
1455210127139812352 -0.1073647174984300 0.0729238141383352 0.0705276336159558 0.0037505917194366 0.3704106610781669 0.0214663746755600
1455210127156047104 -0.1130629341458515 0.0713956856469450 0.0754640157493049 -0.0023927988076210 0.3695518160513878 0.0237874222521782
1455210127174068224 -0.1195996843467397 0.0687386884432087 0.0802182616325424 0.0008046388048172 0.3685441564276695 0.0202664307310104
1455210127188365056 -0.1266206012285459 0.0672353806131781 0.0840560139161427 0.0019061212060928 0.3719490104636192 0.0154358109017372
1455210127205296896 -0.1346197397893157 0.0645817922556371 0.0871570839105858 0.0040804678169250 0.3646180023896217 0.0058632689328194
1455210127219919616 -0.1412209491412282 0.0623554561633581 0.0890409414814223 0.0036824879050255 0.3591711187939644 0.0026627637495041
1455210127236490240 -0.1464812089473862 0.0605050918379711 0.0889235147194774 0.0049472062273026 0.3637316053390502 0.0027771055834770
1455210127252688384 -0.1488924989142101 0.0583490645300507 0.0870103850135194 -0.0094524764966011 0.3648814206863403 0.0026209026298523
1455210127267846144 -0.1495898023719088 0.0571370213021199 0.0856199033346505 -0.0160404964585304 0.3723437544623375 0.0080762407501221
1455210127283780096 -0.1510649685787006 0.0563451223625015 0.0841367263392997 -0.0089990558525085 0.3789247414568901 0.0107626659457207
1455210127300914432 -0.1527411595056354 0.0565929787704136 0.0838483672459492 -0.0010187889204979 0.3752767263148307 0.0115209357980728
1455210127316095232 -0.1541476441194946 0.0576991200660169 0.0832380412978719 -0.0022199112611771 0.3742791859340667 0.0076364745373726
1455210127332322816 -0.1550546542024899 0.0577622183417241 0.0809862387276691 -0.0007166705985069 0.3690482294006348 0.0077293246705055
1455210127347755008 -0.1548917592912541 0.0576737521250533 0.0784166917446477 -0.0143924814142227 0.3692667190068245 0.0050474821265221
1455210127363955200 -0.1535501319710022 0.0578202938956155 0.0744789670568869 -0.0130202484736443 0.3651766369738578 0.0079275570860863
1455210127379941632 -0.1517775705652813 0.0574409026298839 0.0713882128169262 -0.0152317426196098 0.3643460173400879 0.0098955908507347
1455210127395793408 -0.1510263567376361 0.0574683784628502 0.0687331796944939 -0.0193042796435356 0.3618388018796921 0.0126636433591843
1455210127412663552 -0.1509121590585129 0.0575616903011244 0.0664608135259340 -0.0135264537824631 0.3627376562607765 0.0110976110170364
1455210127427689472 -0.1510400280750920 0.0575267283223339 0.0640920262785272 -0.0114331733434677 0.3612243524692535 0.0085243118498802
1455210127443768832 -0.1499807770568017 0.0581518041881086 0.0618470706954869 -0.0046899230723381 0.3505456706286430 0.0003635819677353
1455210127460547840 -0.1494493579086624 0.0589030260052370 0.0589493037554993 -0.0123800988047600 0.3445151816736221 -0.0041367502606392
1455210127476034304 -0.1479900108787457 0.0602598546489911 0.0565826963054448 -0.0141509476170540 0.3342203015819549 -0.0092631101090431
1455210127492798976 -0.1469497455358665 0.0611213726142458 0.0536089573690405 -0.0125943050345421 0.3266453655091286 -0.0028086230037689
1455210127509272832 -0.1460217657224479 0.0627402097039446 0.0509629896469588 -0.0029007062441826 0.3375312393168449 -0.0035805846968651
1455210127523797760 -0.1462900765391123 0.0652701221920428 0.0495881540394941 0.0012712462627411 0.3442735917623519 -0.0072505591572762
1455210127539980544 -0.1478869105918849 0.0692135740077278 0.0484906054331479 0.0043404818581581 0.3336954476867676 -0.0090347257163048
1455210127556136448 -0.1498135079034754 0.0710706028937428 0.0487618830112667 -0.0004942904146194 0.3394462265509606 -0.0085940616779327
1455210127571963136 -0.1517128863771449 0.0737142776341260 0.0491232779659321 0.0040906244692802 0.3410173278669357 -0.0030709190184593
1455210127590800640 -0.1527078553446234 0.0753467367928005 0.0490245852106754 0.0059507695216179 0.3541478592545509 -0.0090792429034233
1455210127604768000 -0.1521657049888716 0.0769385454605962 0.0487180593639489 0.0115056914671898 0.3514111558240890 -0.0008700117329597
1455210127619638528 -0.1521714720642122 0.0779989269907692 0.0488700446357792 0.0116237368318558 0.3486523247329712 -0.0017627870863914
1455210127635772928 -0.1511580953272790 0.0796420707517372 0.0491630349662653 0.0076033298081398 0.3407743538078308 -0.0032320787177086
1455210127652142336 -0.1507051129311452 0.0810889874772660 0.0493757163424996 0.0006250549756050 0.3531246373200416 -0.0102913261985779
1455210127667693568 -0.1483043810664630 0.0841228645858259 0.0488532787051366 0.0116165916362762 0.3572171135546684 -0.0136218477548599
1455210127683715072 -0.1463027531859011 0.0864565846595790 0.0478603337400865 0.0053426984140396 0.3616178432530403 -0.0171375832551956
1455210127699715584 -0.1431935751975192 0.0885456081660535 0.0473513077819731 -0.0000766892719269 0.3631772915406227 -0.0110701151073456
1455210127716257536 -0.1394094509887898 0.0896720014701664 0.0473623532425942 0.0008542062610626 0.3608610510720253 -0.0107308492502213
1455210127732865024 -0.1366649369853113 0.0900853120871218 0.0492755015906799 -0.0069582046889305 0.3632505017382621 -0.0044848634410858
1455210127749831168 -0.1344316220793958 0.0905507128034186 0.0524473956911526 -0.0095576717320442 0.3616970763642310 -0.0094568159871101
1455210127764361728 -0.1325914004030203 0.0910565935682845 0.0548121708863772 -0.0021120038441658 0.3646753697059631 -0.0117453360896111
1455210127780281856 -0.1296302249290585 0.0911564754249680 0.0560011764392983 -0.0013771522768021 0.3736636142416000 -0.0208127950317383
1455210127796703488 -0.1277947197109735 0.0913917257598601 0.0567266614676523 0.0019889269150734 0.3723952485027313 -0.0207398841093063
1455210127811741184 -0.1245143350855937 0.0903537587250017 0.0564024682102542 -0.0007469535085678 0.3752010283920288 -0.0226253553260803
1455210127827684096 -0.1212555726651042 0.0893210527648768 0.0571185962221181 -0.0051553334294319 0.3722210890366554 -0.0180886611599922
1455210127843786240 -0.1186701625630499 0.0889073480000801 0.0587869428080621 0.0005594575910568 0.3613020143856048 -0.0184163862169266
1455210127866615808 -0.1185470286468890 0.0885928393279861 0.0612828640395871 0.0088624928343773 0.3662725453743934 -0.0251987480167389
1455210127877680640 -0.1202242941593236 0.0891117522716464 0.0656796577781530 0.0143951748910904 0.3682350425477028 -0.0329308783923149
1455210127891766784 -0.1223325550099323 0.0893835811241108 0.0690497536480132 0.0154837510490417 0.3708733592536926 -0.0351181125417709
1455210127909967872 -0.1234714119079467 0.0897503423483727 0.0719589255753691 0.0132193600101471 0.3721981757785797 -0.0387429525599480
1455210127924045056 -0.1232349125505033 0.0899200003571967 0.0755494566149774 0.0137861685484886 0.3630781940375328 -0.0329304855936050
1455210127939756544 -0.1216074361662282 0.0885770214826915 0.0780926596084956 0.0052950949513435 0.3520069753528595 -0.0236521311536789
1455210127955949568 -0.1206333796712096 0.0876939851758291 0.0799727741064199 -0.0022403929081917 0.3413936664403915 -0.0210093440242767
1455210127971795968 -0.1190292099412143 0.0868794733353949 0.0823930535735034 0.0079662945207596 0.3553869521371841 -0.0219432884234428
1455210127988166656 -0.1180054002707108 0.0848683179960332 0.0846637273031906 0.0131488994034767 0.3678417575156211 -0.0222523461893082
1455210128004882688 -0.1156593377768857 0.0836459283872674 0.0863547733426858 0.0129838678312302 0.3721165671704292 -0.0269445325304031
1455210128021477376 -0.1133811193118303 0.0820216824173946 0.0879291955633049 0.0136966665567398 0.3736624545501709 -0.0234210719887733
