# timestamp wx wy wz ax ay az
1455210115907901440 -0.0065325096360987 0.0076476549533086 -0.0009352536577668 -0.0069923435581668 0.0068108036412207 -0.0035154078658147
1455210115923943168 -0.0058656222968724 0.0079947324186683 -0.0009946830124884 -0.0068645055799746 0.0066436736065600 -0.0036663270226464
1455210115939912704 -0.0052383843719732 0.0082217904787653 -0.0010473903544049 -0.0067268466612018 0.0065395521263001 -0.0038612741786877
1455210115956504576 -0.0046980489869970 0.0083466516953441 -0.0010799263766694 -0.0065666006333944 0.0065290821617058 -0.0041041865920075
1455210115971781888 -0.0042960187844444 0.0084337660961134 -0.0010352641104721 -0.0063721279597077 0.0066427490314398 -0.0043958243425697
1455210115987899904 -0.0040673508643330 0.0085679935032599 -0.0008414627292215 -0.0061280148449400 0.0069100246253914 -0.0047365427780883
1455210116004863744 -0.0039947647457474 0.0087870819232283 -0.0004322648068517 -0.0058113188091164 0.0073588007158092 -0.0051307400838593
1455210116019855872 -0.0040246662957678 0.0090378522867861 0.0002222962438341 -0.0053963941441930 0.0080114900990439 -0.0055899070217952
1455210116035927808 -0.0041061026884262 0.0092190795214267 0.0011064665719440 -0.0048650106846710 0.0088803113912535 -0.0061310082587708
1455210116052312576 -0.0042044063364271 0.0092760323235615 0.0022040893221915 -0.0042134443797180 0.0099644230684907 -0.0067700637357349
1455210116067966208 -0.0042925180656058 0.0092005390932202 0.0035112688206211 -0.0034522198490032 0.0112491995764077 -0.0075145281027453
1455210116084124672 -0.0043310149425148 0.0089933025992155 0.0050476661263169 -0.0026000888116507 0.0127087444961878 -0.0083589868739504
1455210116100252672 -0.0042673586677012 0.0086378309563315 0.0068250136781908 -0.0016767345228649 0.0143105836450356 -0.0092863711094465
1455210116115950336 -0.0040289889709115 0.0080824010072007 0.0088292526058559 -0.0007007544127692 0.0160168393071760 -0.0102726241909928
1455210116131860992 -0.0034995143907347 0.0072577945657272 0.0110366102927764 0.0003028016087140 0.0177788089264768 -0.0112916789654892
1455210116147793664 -0.0025694661917687 0.0060740473184285 0.0134012335976334 0.0012925316863062 0.0195313393108533 -0.0123176324594015
1455210116164084480 -0.0012024241953957 0.0044729557703067 0.0158264214927089 0.0022111996228079 0.0211960327076151 -0.0133231296470516
1455210116179928832 0.0005439055008883 0.0024609205807374 0.0181948824894898 0.0029981302690314 0.0226945074861285 -0.0142773825848672
1455210116195855872 0.0025589764343443 0.0001345848434784 0.0204173137719793 0.0036023234839218 0.0239634014787615 -0.0151469335342481
1455210116211915264 0.0047295290936894 -0.0023716078223017 0.0224209230826256 0.0040150345619723 0.0249275551623328 -0.0158145025399461
1455210116227948800 0.0068619331837737 -0.0048469703460617 0.0241822897061515 0.0041539261401514 0.0256296188856968 -0.0164134103616148
1455210116243902464 0.0088145354599182 -0.0071407691230421 0.0256402625335833 0.0040351737692600 0.0260277241668878 -0.0168259338284204
1455210116261156352 0.0104552997337991 -0.0091369797803634 0.0267453458236391 0.0036622569616658 0.0261269142360748 -0.0170192142790119
1455210116275943424 0.0117042580975013 -0.0107671739640656 0.0274447444869023 0.0030529624313273 0.0259436199772972 -0.0169658080660095
1455210116292366848 0.0125029985675711 -0.0119755965667717 0.0277250387353551 0.0022329328591987 0.0255003060096056 -0.0166460097943607
1455210116307840512 0.0128111610938653 -0.0126895828588034 0.0276317265753299 0.0012309159233591 0.0248235718306059 -0.0160467571225462
1455210116323958784 0.0125941146971566 -0.0128423734675461 0.0272371969863487 0.0000789424577369 0.0239468004682422 -0.0151601523894715
1455210116341125376 0.0118277408817826 -0.0124123567072886 0.0266228686346727 -0.0011858957196433 0.0229110345162850 -0.0139849050848449
1455210116356114688 0.0104871558234870 -0.0113893852283970 0.0258546021595274 -0.0025232624176838 0.0217592090426026 -0.0125295205571921
1455210116372216576 0.0085717298785567 -0.0098135787996063 0.0249562716593066 -0.0038944821504157 0.0205287996917904 -0.0108137231132721
1455210116387852544 0.0061517701941045 -0.0078053619020548 0.0238957394094214 -0.0052650657314984 0.0192513761576984 -0.0088668515713312
1455210116403936256 0.0033579057096121 -0.0055412349955726 0.0226470156584032 -0.0066040848999804 0.0179566442490173 -0.0067257478457902
1455210116420974336 0.0003263827702151 -0.0031956788418301 0.0212135061966006 -0.0078837384560285 0.0166733344390134 -0.0044341636110366
1455210116436670464 -0.0028080266576276 -0.0008991087325732 0.0196423085355339 -0.0090825893830197 0.0154236626464174 -0.0020429312572099
1455210116452099584 -0.0058945877457936 0.0012024752241072 0.0179878843464499 -0.0101910674517291 0.0142181916828263 0.0003914694896584
1455210116468518144 -0.0087833532922825 0.0029797286155208 0.0162808772806993 -0.0112112951495775 0.0130587447415063 0.0028112908866104
1455210116483991296 -0.0113791387610176 0.0043428106055239 0.0145046159965761 -0.0121508720105375 0.0119439156271244 0.0051633472391429
1455210116499874304 -0.0136242493663310 0.0052387561859000 0.0126219699062512 -0.0130176585666789 0.0108705818322974 0.0074017095126947
1455210116516072960 -0.0153277319902767 0.0054988566705002 0.0106005284275166 -0.0139280898816589 0.0098872597497044 0.0100784949970679
1455210116531942144 -0.0167099208498769 0.0054488425163156 0.0085165672495408 -0.0146644297603798 0.0088772376648481 0.0119674496400165
1455210116548401152 -0.0176109213162362 0.0049930545363572 0.0063740000970234 -0.0153320273564821 0.0078895633257598 0.0136296804362745
1455210116564296960 -0.0180432812914210 0.0041412094528748 0.0041889044807524 -0.0159218878443475 0.0069202094387006 0.0150439168979074
1455210116579897856 -0.0180202405207551 0.0028647294243945 0.0019630039080237 -0.0164294656629851 0.0059636520789809 0.0161998572154802
1455210116596145408 -0.0175645293398223 0.0011678648738522 -0.0003014145046760 -0.0168589108223940 0.0050123952480229 0.0170949105316893
1455210116612086016 -0.0167112602047857 -0.0008408954413492 -0.0025348191102921 -0.0172178406536473 0.0040592892357498 0.0177329348743306
1455210116628293632 -0.0155635722992410 -0.0029777517629229 -0.0046335967330718 -0.0175082539268814 0.0031002907840883 0.0181251305544593
1455210116644089600 -0.0142652953390000 -0.0050447538075366 -0.0064812089759928 -0.0177221267523722 0.0021355228027602 0.0182909944122047
1455210116660131328 -0.0129339589254466 -0.0068683560163266 -0.0079855165255241 -0.0178445824129173 0.0011683670408002 0.0182591651717228
1455210116676049152 -0.0116319734775804 -0.0083442229430573 -0.0091003477520995 -0.0178604821121896 0.0002031531445211 0.0180669317843698
1455210116691963648 -0.0103757178875950 -0.0094459845701067 -0.0098078403663011 -0.0177578591954989 -0.0007558344175943 0.0177566669137815
1455210116708013568 -0.0091726062805868 -0.0101795093220535 -0.0101008306520334 -0.0175252828058515 -0.0017017531220590 0.0173707106310627
1455210116724009984 -0.0080023986815986 -0.0105613415335250 -0.0099638086510073 -0.0171489378606267 -0.0026232637449464 0.0169464601004346
1455210116739943168 -0.0068448325967478 -0.0106327103167208 -0.0094116191773826 -0.0166170697617822 -0.0035079004531149 0.0165126406021878
1455210116756739328 -0.0056996602836100 -0.0104733387402140 -0.0085160620223955 -0.0159298417311191 -0.0043476131097530 0.0160885600055801
1455210116772554496 -0.0045472689669853 -0.0101802797234644 -0.0073503586651611 -0.0151042224440360 -0.0051406311893384 0.0156857851426363
1455210116788057088 -0.0033625724803253 -0.0098073165566741 -0.0059733557884049 -0.0141679153136163 -0.0058889708919035 0.0153101946219441
1455210116805563648 -0.0021280469734218 -0.0093693810709443 -0.0044371605963288 -0.0131492974381391 -0.0065938957949123 0.0149632615063744
1455210116819842304 -0.0006830390992356 -0.0090877066415676 -0.0029039594829851 -0.0117145497202348 -0.0075016534659182 0.0141267894110504
1455210116835889408 0.0006741344523664 -0.0086003015825814 -0.0011945014669759 -0.0106023469073386 -0.0081000322520452 0.0138267860200980
1455210116852199424 0.0021536193691644 -0.0081788946985486 0.0005556271948538 -0.0094780869903509 -0.0086276576961867 0.0135417700543899
1455210116867852800 0.0037960744024572 -0.0079025036922116 0.0023040636516070 -0.0083699041407292 -0.0090791219496636 0.0132665868984951
1455210116884008704 0.0056299835531035 -0.0078223421988133 0.0040114087872453 -0.0073085858433247 -0.0094560864634591 0.0129962925506028
1455210116899845120 0.0076656021701053 -0.0079691491937626 0.0056163941825232 -0.0063220970540391 -0.0097619623045986 0.0127246707760251
1455210116916536064 0.0098760841971856 -0.0083338148696367 0.0070492626114056 -0.0054330631263228 -0.0100005338390266 0.0124435004546848
1455210116931817216 0.0122008969635934 -0.0088848122186930 0.0082188066811844 -0.0046626661765592 -0.0101803339898427 0.0121434870220139
1455210116947881216 0.0145386743074048 -0.0095506670475630 0.0090552262463747 -0.0040343325238144 -0.0103160233855100 0.0118163521423757
1455210116964088064 0.0168043247633877 -0.0102414479817838 0.0095470724634260 -0.0035692029480850 -0.0104225498209755 0.0114563723438722
1455210116979820288 0.0189329419932022 -0.0108626841646426 0.0097195321908796 -0.0032766022602528 -0.0105071913464094 0.0110611403337235
1455210116996336640 0.0208444184705926 -0.0112969356823363 0.0096303462641664 -0.0031481047475256 -0.0105661445301335 0.0106324236808648
1455210117011879424 0.0224298809504978 -0.0114172428152223 0.0093444322248902 -0.0031572053965852 -0.0105865199393273 0.0101772763513899
1455210117028124672 0.0235659437891235 -0.0110865986223361 0.0089273929624241 -0.0032623270967109 -0.0105509268618407 0.0097087928355929
1455210117044334848 0.0241881252058747 -0.0102334187995577 0.0084626738507267 -0.0034126410517657 -0.0104417601904541 0.0092445674889094
1455210117060177664 0.0243255534471460 -0.0088723073260241 0.0080291454591986 -0.0035570986265334 -0.0102427194936480 0.0088017806092890
1455210117076239360 0.0240835988374096 -0.0070994095317337 0.0076826603806089 -0.0036526874349219 -0.0099387775491690 0.0083896827402440
1455210117092853760 0.0236043409394794 -0.0050822297297602 0.0074454799314566 -0.0036672165701477 -0.0095178793910089 0.0080038910606038
1455210117108385024 0.0230369007614152 -0.0030029387078569 0.0073260272413510 -0.0035779923048610 -0.0089737704073509 0.0076274377394911
1455210117123946752 0.0226910593618050 -0.0012806903861275 0.0071643433790495 -0.0031873210163190 -0.0096462628789268 0.0087628767330225
1455210117140091392 0.0222447120402395 0.0005449469698887 0.0074100143780847 -0.0028460877052673 -0.0088564396852769 0.0083366091359404
1455210117156019968 0.0219573667600164 0.0022001980815959 0.0079201150203204 -0.0023584095089025 -0.0079455634356070 0.0078537926652724
1455210117173730560 0.0218680651638892 0.0036601422273382 0.0086978279056853 -0.0017104830574064 -0.0069161280847455 0.0072948973994054
1455210117187924736 0.0219869531256900 0.0048955832077385 0.0096908030559925 -0.0008945527449544 -0.0057761737037819 0.0066406359031448
1455210117204246528 0.0222676157582559 0.0059053013418355 0.0108548884526061 0.0000886615350366 -0.0045396194066239 0.0058754973964076
1455210117219859456 0.0226521155352063 0.0067363267370676 0.0121819667675194 0.0012338092867234 -0.0032216442441439 0.0049937728277193
1455210117235888128 0.0230730523626693 0.0074529157490782 0.0136331580384382 0.0025323961708702 -0.0018349833490723 0.0040037342574556
1455210117252172544 0.0234769296252817 0.0080981651037611 0.0151460076961735 0.0039684413996228 -0.0003916336556571 0.0029263042387546
1455210117267860480 0.0237981901917996 0.0086909800092350 0.0166330142158706 0.0055168811535504 0.0010939415348730 0.0017886204937679
1455210117284522752 0.0239637660996067 0.0092620482692498 0.0180202965077836 0.0071497829439914 0.0026063924216291 0.0006163203941874
1455210117299862272 0.0239009221475349 0.0098519436873434 0.0192101550409921 0.0088428283434769 0.0041353473746292 -0.0005705406239338
1455210117316043008 0.0235488674694827 0.0104691219932668 0.0200682064842579 0.0105739315913710 0.0056780823947067 -0.0017565872826838
1455210117331822336 0.0228993880801016 0.0110661044921172 0.0204728262863859 0.0123158558733019 0.0072347257991643 -0.0029280308194817
1455210117347824640 0.0219670889558360 0.0115688600585004 0.0203500952491903 0.0140320233759181 0.0088016872467050 -0.0040699324385228
1455210117364648704 0.0207642107519898 0.0119311772828792 0.0196976756312242 0.0156805540486199 0.0103701599945434 -0.0051657075290169
1455210117379863040 0.0192827735749871 0.0121228327084833 0.0185545889174466 0.0172235752533097 0.0119304624942361 -0.0061994493687966
1455210117396356864 0.0175327888277645 0.0121377372570573 0.0169783907859288 0.0186355296505785 0.0134773226941263 -0.0071594567656515
1455210117412411136 0.0155493820192649 0.0120025040904284 0.0150337131617545 0.0199058909854442 0.0150110937653702 -0.0080398233984586
1455210117427942912 0.0136703706584063 0.0114662137785060 0.0126043269629879 0.0219224446893027 0.0166629227960825 -0.0098258685135999
1455210117444303872 0.0113333381450113 0.0111554843759055 0.0101908659609304 0.0229191971207623 0.0181771121381049 -0.0105457479429018
1455210117463081728 0.0088977018078923 0.0107339544859550 0.0076647529695778 0.0237834352646528 0.0196770034593258 -0.0111903896499516
1455210117477228288 0.0064481569430083 0.0101229011378904 0.0050947784403196 0.0245092368294161 0.0211517754584550 -0.0117661661355986
1455210117494154240 0.0040731417473456 0.0093045071930281 0.0026079675359880 0.0250905953803717 0.0225864888036077 -0.0122807018316676
1455210117508890880 0.0018800339022469 0.0083613380772452 0.0004129318237047 0.0255327484004260 0.0239640872127243 -0.0127436628664812
1455210117523772672 -0.0000457681855815 0.0073999851275492 -0.0013019006711444 0.0258583558713677 0.0252677807511194 -0.0131684327084580
1455210117540102400 -0.0016658848457344 0.0064438886925265 -0.0024645656296138 0.0261015802770156 0.0264827294376623 -0.0135708996815314
1455210117555914752 -0.0030012550735794 0.0054379181102087 -0.0031661175436237 0.0262927345610188 0.0275953105914692 -0.0139646009026926
1455210117572306688 -0.0040936223861705 0.0043036187822107 -0.0035743364488469 0.0264456211642576 0.0285918054379300 -0.0143560143943323
1455210117588833024 -0.0049952380697169 0.0029805580403762 -0.0038328844666175 0.0265580355891563 0.0294599294532460 -0.0147438929692229
1455210117605469440 -0.0057710394453575 0.0014820744096416 -0.0040091894562640 0.0266217554075908 0.0301933464049244 -0.0151221715615362
1455210117621060864 -0.0064740252120667 -0.0001189591448485 -0.0041103035541057 0.0266307152627811 0.0307942045302062 -0.0154830575758249
1455210117636055808 -0.0071472937560461 -0.0017320687980850 -0.0041439582991722 0.0265826685780659 0.0312706735556579 -0.0158180925774460
1455210117654188032 -0.0078556101584336 -0.0033084876486857 -0.0041710602155293 0.0264759006773989 0.0316318700206552 -0.0161177148971840
1455210117668041216 -0.0086658004385811 -0.0048600165700492 -0.0042823284454839 0.0263056483912659 0.0318842910710598 -0.0163711081603930
1455210117683887104 -0.0095970355757403 -0.0064030997302941 -0.0045263648187071 0.0260640571473271 0.0320309002349038 -0.0165667723741463
1455210117699886336 -0.0106052578619679 -0.0079443595042898 -0.0048868660901254 0.0257424003733776 0.0320701772411131 -0.0166932314299936
1455210117716229888 -0.0116322309586849 -0.0094721903159420 -0.0053015920908651 0.0253320070933663 0.0319943964766011 -0.0167400652805399
1455210117733419520 -0.0123598242655373 -0.0112731016315563 -0.0059270198998254 0.0256565812209750 0.0301695127851281 -0.0166269382260259
1455210117747940096 -0.0133322855302110 -0.0127775124493691 -0.0063744344452927 0.0250374668710558 0.0298200907253590 -0.0164932674640760
1455210117764110848 -0.0142722446508742 -0.0142597369547541 -0.0068322574480913 0.0242969935289632 0.0293143123137920 -0.0162625391403788
1455210117780945664 -0.0151724010874381 -0.0156721957927742 -0.0072587207167097 0.0234270559402315 0.0286470840244489 -0.0159307076666854
1455210117796418048 -0.0160162319836674 -0.0169684912740351 -0.0075834682357793 0.0224258050104493 0.0278174236611482 -0.0154940974009290
1455210117812083968 -0.0167818842871881 -0.0181158528901744 -0.0077489668187961 0.0213000391879845 0.0268267994221360 -0.0149499867738059
1455210117828058112 -0.0174530299316522 -0.0190571759995882 -0.0077122256521859 0.0200641978881261 0.0256796405430393 -0.0142967252323581
1455210117844355840 -0.0180250625411957 -0.0197495566774132 -0.0074660220989710 0.0187356958030256 0.0243832741367314 -0.0135343419148078
1455210117862363136 -0.0185018036260871 -0.0202043649794718 -0.0070435949593865 0.0173296764375703 0.0229439171456119 -0.0126654778436553
1455210117875868160 -0.0189001448890290 -0.0204831226874542 -0.0065158716126080 0.0158567100407970 0.0213625866620530 -0.0116948905610346
1455210117891768320 -0.0192286814526750 -0.0206394207993874 -0.0059485781930324 0.0143226263071666 0.0196356215119211 -0.0106274034989970
1455210117908785664 -0.0194961033922231 -0.0206631981561856 -0.0053660017309123 0.0127283189841530 0.0177574633098062 -0.0094669366607264
1455210117923913984 -0.0197267113213311 -0.0205247650977525 -0.0047701170706503 0.0110714652612230 0.0157242899795224 -0.0082178815716284
1455210117940563200 -0.0199464170643934 -0.0201947541885904 -0.0041460653389224 0.0093510897373204 0.0135375033669688 -0.0068877301448791
1455210117957029632 -0.0201587253935980 -0.0196642115061819 -0.0035038402250052 0.0075717638918449 0.0112074685008400 -0.0054890557234899
1455210117975092480 -0.0203355857324438 -0.0189796557624092 -0.0028890782618594 0.0057428727595949 0.0087555896389732 -0.0040393322229994
1455210117988174080 -0.0204534575447262 -0.0181993606916025 -0.0023500630132734 0.0038740116369454 0.0062113952577358 -0.0025580770695938
1455210118004924416 -0.0204933184194504 -0.0173670284353926 -0.0019154715637851 0.0019724264015244 0.0036071421971118 -0.0010638031066872
1455210118021029120 -0.0204376628384632 -0.0164988875938732 -0.0015840899274326 0.0000445698851086 0.0009736910399798 0.0004259513784512
1455210118035755264 -0.0200294843715906 -0.0159218514811608 -0.0015671251475268 -0.0005245399387496 -0.0010878948382133 0.0008256510310474
1455210118052237056 -0.0197352406806124 -0.0150513790937713 -0.0014159435997944 -0.0024757828943788 -0.0036905451411693 0.0022533659160312
1455210118068281856 -0.0193182539748057 -0.0142232985624046 -0.0013131125865853 -0.0044168802200620 -0.0062311725825599 0.0036262219806049
1455210118083907072 -0.0188019112487905 -0.0134334521633995 -0.0012374194176949 -0.0063289692970163 -0.0086810005202107 0.0049311839036142
1455210118100168448 -0.0182164243139094 -0.0126480043008731 -0.0011735188785699 -0.0081913263801263 -0.0110161972067752 0.0061556979184366
1455210118117000704 -0.0175883410962899 -0.0118405068029536 -0.0011157338356564 -0.0099808601152449 -0.0132141545973986 0.0072880173305447
1455210118132053760 -0.0169405655382266 -0.0109902175028044 -0.0010321961687960 -0.0116700921319095 -0.0152480321895983 0.0083194061246913
1455210118150357504 -0.0162884313303116 -0.0100879222820474 -0.0008660285598794 -0.0132261367381861 -0.0170889595868844 0.0092454199837887
1455210118165114624 -0.0156678240525542 -0.0091192613901229 -0.0005532334930213 -0.0146139537863136 -0.0187143722196516 0.0100647984237858
1455210118179923200 -0.0150831891850192 -0.0080509466502073 -0.0000305444209596 -0.0158010075170485 -0.0201118832877653 0.0107774339546290
1455210118196016128 -0.0144972363286719 -0.0068583328641926 0.0007328469575802 -0.0167591053698459 -0.0212748158906379 0.0113828536985694
1455210118212070912 -0.0138385130612515 -0.0055715228439316 0.0017401932597494 -0.0174656993238015 -0.0221960597043320 0.0118782831729031
1455210118228829440 -0.0130316081368060 -0.0042909546650830 0.0029543510759023 -0.0179068036052029 -0.0228670453029885 0.0122552378038305
1455210118244064512 -0.0120415976920220 -0.0031161093862650 0.0042986773842144 -0.0180791110487698 -0.0232806746189817 0.0124972668128568
1455210118259821312 -0.0108320879312091 -0.0021126830397537 0.0057069212590906 -0.0179875876499024 -0.0234339890444120 0.0125830341066283
1455210118277022720 -0.0093821877535254 -0.0013145413445274 0.0071510136961927 -0.0176396751912997 -0.0233284294663270 0.0124938079464517
1455210118292256000 -0.0076663813017460 -0.0007431567820319 0.0086464150242680 -0.0170428603954327 -0.0229699286596479 0.0122190315438455
1455210118308427520 -0.0056832042904626 -0.0003792815635185 0.0102134400334853 -0.0162080898512076 -0.0223717414201325 0.0117561317693754
1455210118324803584 -0.0034582297896311 -0.0001595933415978 0.0118527302397444 -0.0151530102084744 -0.0215557238628525 0.0111081057029398
1455210118340106752 -0.0008275751055377 -0.0003146495156036 0.0133662534257180 -0.0147913235267084 -0.0219448048777514 0.0110330313622226
1455210118356069888 0.0016831094586824 -0.0001271313635868 0.0151509962104557 -0.0133596067021870 -0.0207638324066048 0.0100484570113447
1455210118372260096 0.0041994180664549 0.0001833177095962 0.0170098833230415 -0.0117659638962258 -0.0194261536184609 0.0089285628393403
1455210118388109568 0.0066113390101846 0.0006807755038897 0.0188872975464756 -0.0100254169890219 -0.0179464865030697 0.0077041581969713
1455210118404566528 0.0088489346612786 0.0013654467426093 0.0206884340717422 -0.0081575800384430 -0.0163428350809556 0.0064079218199810
1455210118420531968 0.0108805486396465 0.0022069045102321 0.0223070013839986 -0.0061901634569366 -0.0146377573090925 0.0050711261796893
1455210118436609280 0.0126841855355441 0.0031922922286580 0.0236784377855624 -0.0041587983121226 -0.0128591602378344 0.0037235808637185
1455210118451824640 0.0142040770096367 0.0043433388166835 0.0247826088096701 -0.0021046023554810 -0.0110397882069382 0.0023971125268323
1455210118468317696 0.0153516106002187 0.0057203330848300 0.0256316662805967 -0.0000698400036085 -0.0092125764207080 0.0011288041737392
1455210118483801088 0.0160311092373184 0.0074128392104775 0.0262527380531701 0.0019081329400680 -0.0074026259499835 -0.0000403697651810
1455210118499825152 0.0161554464032374 0.0095003105096812 0.0266536091226435 0.0038017547408157 -0.0056218148999739 -0.0010708806566547
1455210118517733376 0.0156892538151987 0.0120035644066615 0.0268506184616519 0.0055921325193747 -0.0038728166175711 -0.0019305490271501
1455210118531825664 0.0146770457787288 0.0148491533421433 0.0268707926860612 0.0072641885720469 -0.0021597135094112 -0.0025978371339690
1455210118547870208 0.0132442758338680 0.0179211002160729 0.0267707732705265 0.0088059779009835 -0.0004941514432812 -0.0030616590991469
1455210118564904704 0.0115170807830576 0.0210927986210815 0.0266268704807985 0.0102130938430594 0.0011079110553355 -0.0033183244076314
1455210118579857408 0.0095620417601971 0.0242693169659757 0.0265232098320321 0.0114912485308202 0.0026324613023723 -0.0033672437662706
1455210118597897472 0.0074177022419658 0.0273673520749481 0.0265303950187581 0.0126522321895546 0.0040687839468716 -0.0032087629767445
1455210118613316608 0.0051639014252135 0.0302678929224538 0.0266783379382869 0.0137065262160294 0.0054074118933657 -0.0028465536385946
1455210118627884800 0.0029301714701942 0.0328413917572171 0.0269706545140628 0.0146588387109596 0.0066392282178470 -0.0022921797574981
1455210118644697088 0.0010296757618310 0.0346968175854091 0.0272557847674833 0.0154294455072943 0.0078742727779653 -0.0021972340780621
1455210118660126976 -0.0009381479427932 0.0363422405188160 0.0279033564351818 0.0161774760081180 0.0088722949635993 -0.0013302858477485
1455210118675815680 -0.0027497338152412 0.0374706640740687 0.0287762758362423 0.0168232498014774 0.0097464087218484 -0.0003533187149149
1455210118691832832 -0.0044120693060919 0.0380387565254424 0.0298561834296637 0.0173631716957668 0.0104879087835219 0.0007027763623027
1455210118707965184 -0.0059478639853078 0.0379678486241290 0.0310377339641250 0.0177862669083902 0.0110845145442452 0.0018103607942320
1455210118723894016 -0.0074198216349199 0.0372123291792166 0.0322031100181310 0.0180786138680378 0.0115275446707580 0.0029448702492940
1455210118739869952 -0.0089284413378580 0.0358350908106927 0.0332944577170336 0.0182359761544343 0.0118204920968115 0.0040829268225981
1455210118756446976 -0.0105991969791036 0.0340074600738477 0.0343310729341144 0.0182758441164319 0.0119836556808291 0.0052012057755847
1455210118775241472 -0.0125719977498415 0.0319620607875321 0.0353270621838420 0.0182377346485424 0.0120525775260049 0.0062783042368980
1455210118787964416 -0.0149684806253707 0.0298871583252229 0.0362418671820839 0.0181706843428823 0.0120712870012740 0.0072989783108186
1455210118806800640 -0.0178560962229530 0.0278913247045345 0.0370147236211652 0.0181176762221954 0.0120819471283415 0.0082569453280754
1455210118820971520 -0.0211829159470743 0.0259580683221070 0.0376052881237399 0.0181074182052263 0.0121147405782755 0.0091538425561446
1455210118835932928 -0.0247744731362062 0.0239849892496240 0.0380179526237849 0.0181562864449664 0.0121819997686807 0.0099947764562673
1455210118851979776 -0.0284182422459505 0.0218559484371319 0.0383031324439954 0.0182736938157051 0.0122769083212144 0.0107834420967419
1455210118867956992 -0.0319334253647197 0.0194610042257713 0.0385325911060636 0.0184658899989322 0.0123776310723050 0.0115188754058481
1455210118885404672 -0.0351887088204819 0.0167028172012273 0.0387511194136460 0.0187374096304637 0.0124562619812860 0.0121941671083496
1455210118899778048 -0.0380963823563878 0.0134971250817185 0.0389648112383508 0.0190897761892184 0.0124876695958834 0.0127980463556116
1455210118915907328 -0.0405863496806221 0.0097980794263071 0.0391659051164921 0.0195203979707280 0.0124527094432699 0.0133177046971318
1455210118931916288 -0.0426304932171944 0.0056412106677087 0.0393615367245018 0.0200263850629584 0.0123367995625264 0.0137408485951948
1455210118948106752 -0.0440509222244630 0.0009494893513582 0.0394583693360736 0.0207895499854532 0.0117797282209814 0.0139896548879773
1455210118965536768 -0.0454157810415231 -0.0035355958372610 0.0397473434587458 0.0214627925061422 0.0114746597614798 0.0141996200232983
1455210118979963904 -0.0466753692769886 -0.0077477819056476 0.0401197167961254 0.0222384404714198 0.0110728951002849 0.0143116695205355
1455210118995928576 -0.0479152293875771 -0.0115152108771437 0.0405321279225048 0.0231272323936481 0.0105772026430870 0.0143450355611262
1455210119012409344 -0.0491098903430884 -0.0148628973305829 0.0408513032809263 0.0241290318833803 0.0099871561808832 0.0143208033773993
1455210119028005888 -0.0501868378487847 -0.0178909107565284 0.0409225735564968 0.0252265961014987 0.0092977849058331 0.0142548263826305
1455210119044788480 -0.0511250248868297 -0.0205607056404620 0.0407267889535215 0.0263909919058625 0.0085023669846350 0.0141579561741040
1455210119060493824 -0.0519697473392344 -0.0226388164251938 0.0404077351396012 0.0275999535526700 0.0075975747470712 0.0140410340816781
1455210119075967232 -0.0527881965976841 -0.0238602506944282 0.0401675880037115 0.0288542408907725 0.0065910813481369 0.0139150300806673
1455210119091957248 -0.0535807901586866 -0.0241240728681086 0.0401046192251192 0.0301798509441500 0.0055103649664507 0.0137832568782360
1455210119107962880 -0.0542687851830429 -0.0235219309600177 0.0401862876769097 0.0316168144813947 0.0044046588803035 0.0136356685603827
1455210119124044032 -0.0547377505296047 -0.0222246769693207 0.0403400179346146 0.0332009099570255 0.0033320757624092 0.0134531967346830
1455210119140324608 -0.0549068359296124 -0.0204046832221545 0.0404988026153527 0.0349478960115762 0.0023394682832653 0.0132169434039209
1455210119156433664 -0.0547354984895313 -0.0182205161799548 0.0406031804285715 0.0368490490717188 0.0014522217904769 0.0129128478075633
1455210119178965504 -0.0542071511528912 -0.0158059188893337 0.0405834411294388 0.0388773751246583 0.0006792314654772 0.0125301193104550
1455210119188129536 -0.0533452710405236 -0.0132587992425128 0.0403650715465213 0.0409962514623541 0.0000215951246717 0.0120590579457364
1455210119204391680 -0.0522169557502064 -0.0105522319962378 0.0399356488275913 0.0431667024542605 -0.0005229861044928 0.0114932691589233
1455210119226921984 -0.0509647340044846 -0.0075508366286031 0.0393139227106640 0.0453540870259476 -0.0009559473620945 0.0108345069431473
1455210119235864064 -0.0496285217450959 -0.0043490822871102 0.0383118880666505 0.0475717171642259 -0.0020551328996557 0.0110783715163922
1455210119252727552 -0.0488130145195859 -0.0004878872776962 0.0368634318022584 0.0497122622587450 -0.0022177557078451 0.0102685625642499
1455210119268154880 -0.0485570042452821 0.0036483221406756 0.0345174267053552 0.0517823126594907 -0.0021803604092297 0.0093986509662073
1455210119284464896 -0.0489020768973852 0.0078423256302796 0.0311179235481535 0.0537298229168684 -0.0018879897976978 0.0084725531726448
1455210119300587008 -0.0496734571613814 0.0118540281538334 0.0268056263414211 0.0554814763989018 -0.0013053547161333 0.0074955138716990
1455210119316650752 -0.0505633925552589 0.0154829485112224 0.0219640672228610 0.0569488703959900 -0.0004353099306392 0.0064768784422808
1455210119333315840 -0.0513168250389843 0.0187423342889343 0.0171190440565134 0.0580508864253582 0.0006813033989327 0.0054266204611591
1455210119347752448 -0.0518790587320506 0.0218237181746578 0.0127430248568689 0.0587355829050487 0.0019785940119404 0.0043537687653794
1455210119363964672 -0.0523114179554402 0.0248345754019154 0.0090499090383047 0.0589775403216030 0.0033782720809450 0.0032719614636119
1455210119379779584 -0.0526743102005581 0.0276745989367988 0.0059714218589547 0.0587592333115957 0.0047986217954030 0.0022040932682582
1455210119395910144 -0.0529828557388055 0.0301828507188090 0.0033490863577941 0.0580633416657884 0.0061617229306766 0.0011785429066066
1455210119411834112 -0.0532339767565361 0.0323196246003225 0.0010913687291477 0.0568832119438359 0.0074014144591347 0.0002211774450417
1455210119427983872 -0.0534539383731208 0.0341381720775853 -0.0008473147686626 0.0552314840080580 0.0084703608532253 -0.0006483923854232
1455210119443833600 -0.0536476348235740 0.0356961895213212 -0.0025178550273057 0.0531378755322139 0.0093427786202927 -0.0014151408007197
1455210119461636096 -0.0538279713751281 0.0370416207519077 -0.0039708624162081 0.0506476432443950 0.0100126840473949 -0.0020667844529079
1455210119476121344 -0.0539923420054165 0.0382052028465981 -0.0052198270838387 0.0478213478360114 0.0104877614384785 -0.0025937667218012
1455210119492072704 -0.0541291452821719 0.0392010056254853 -0.0062772222729334 0.0447286129629524 0.0107825065225738 -0.0029914941195577
1455210119509565696 -0.0542384707168670 0.0400565087190640 -0.0071631266726557 0.0414375993110438 0.0109136746300617 -0.0032628670302387
1455210119524167424 -0.0543282188441308 0.0407970632173595 -0.0079223673039771 0.0380079509105708 0.0108965325685984 -0.0034177897334429
1455210119540513792 -0.0544050702624558 0.0414269110268540 -0.0085885942854328 0.0344917541610905 0.0107426601561082 -0.0034693077775007
1455210119556157440 -0.0543279395184925 0.0417269315349625 -0.0092773286825814 0.0313994965397260 0.0092937613163684 -0.0038959018072316
1455210119571838720 -0.0543794070237361 0.0421712453860529 -0.0097729467591614 0.0278654601875406 0.0089017516340584 -0.0037764086051167
1455210119588697088 -0.0544208696476739 0.0425646696677825 -0.0101959046680599 0.0244030305988541 0.0084176606440155 -0.0035897909323511
1455210119604832000 -0.0544515304861780 0.0429231219240300 -0.0105509107695915 0.0210601443191372 0.0078645975680765 -0.0033506745051461
1455210119620245504 -0.0544665234405795 0.0432353148666598 -0.0108496138803100 0.0178752041742174 0.0072650599766094 -0.0030737328037642
1455210119635967232 -0.0544866001811601 0.0434957431582001 -0.0111066932285034 0.0148784489412590 0.0066381621315605 -0.0027722523876429
1455210119652111104 -0.0545261832907044 0.0437143220460467 -0.0113319448010170 0.0120946983058036 0.0059987947165291 -0.0024584328298265
1455210119668366592 -0.0545738943303851 0.0439097565268991 -0.0115219405756297 0.0095432328954243 0.0053583201369078 -0.0021432975692785
1455210119683915264 -0.0546143099123367 0.0440829601023035 -0.0116798342129767 0.0072366308559555 0.0047247993374831 -0.0018350579090631
1455210119700279552 -0.0546384390717619 0.0442246686141260 -0.0118202839234068 0.0051815975156869 0.0041016987378166 -0.0015385113276204
1455210119716100352 -0.0546561324267194 0.0443309493846884 -0.0119432731015648 0.0033810214267323 0.0034889029291351 -0.0012560129286028
1455210119732501760 -0.0546732652471987 0.0444222024282685 -0.0120378928080493 0.0018355653261149 0.0028886490843451 -0.0009876657844532
1455210119748480768 -0.0546813321384194 0.0445165085427723 -0.0121109965212285 0.0005443666815645 0.0023116496814912 -0.0007306565039309
1455210119763759616 -0.0546972796460877 0.0446146291510854 -0.0121701065408176 -0.0004944541316043 0.0017776349479922 -0.0004804378536691
1455210119782210048 -0.0547153207414222 0.0447039213318719 -0.0122226448146303 -0.0012843429039687 0.0013090771485541 -0.0002338338633591
1455210119796970496 -0.0547331899257161 0.0447781701549564 -0.0122723929469116 -0.0018327081869253 0.0009232373165043 0.0000091266656316
1455210119812061184 -0.0547343480330573 0.0448425054491722 -0.0123194388590807 -0.0021542522355015 0.0006234957728550 0.0002466968268600
1455210119827747328 -0.0544598090598797 0.0449570659916504 -0.0123597397615219 -0.0022701329900970 0.0003811673632751 0.0004844606970931
1455210119844045312 -0.0533162310986870 0.0452782971667575 -0.0123811121461410 -0.0022015037459864 0.0001104254991301 0.0007544667287832
1455210119862460160 -0.0504967477977492 0.0457582154181420 -0.0124833810739405 -0.0030878365021951 -0.0004163527492478 0.0004108214527340
1455210119875906560 -0.0459695480728322 0.0466892680450990 -0.0123353363344882 -0.0027157608448813 -0.0011964242656903 0.0009855354985556
1455210119891789312 -0.0401134481614259 0.0476948848512286 -0.0120151412307163 -0.0022495419600983 -0.0024158132241154 0.0018357613777492
1455210119908571904 -0.0337598672033644 0.0485780038455474 -0.0115258860590536 -0.0017465665096053 -0.0040770339397073 0.0029765909414887
1455210119923947264 -0.0276354277058430 0.0492674343256644 -0.0109423510737033 -0.0012595196058374 -0.0060897722976757 0.0043586630786467
1455210119939832576 -0.0221079144889893 0.0497911211893730 -0.0103533794195606 -0.0008212823910618 -0.0083141482110032 0.0058930999905673
1455210119957515264 -0.0172864082021525 0.0502043879057771 -0.0098160820380571 -0.0004418918013761 -0.0106025802631164 0.0074808344142429
1455210119971790080 -0.0131318973610709 0.0505495049551438 -0.0093396071579806 -0.0001168249128037 -0.0128252660019824 0.0090316635627627
1455210119988008192 -0.0095606706486975 0.0508520020624221 -0.0089155632893129 0.0001615477247514 -0.0148812084765295 0.0104723617356994
1455210120004558848 -0.0064946157102655 0.0511243299856812 -0.0085402905644692 0.0003976050292410 -0.0166995633700505 0.0117481920114419
1455210120020091904 -0.0038732983034214 0.0513732315681320 -0.0082307085825473 0.0005924662055933 -0.0182343800263461 0.0128204592802933
1455210120035854080 -0.0016300527671524 0.0515909952612797 -0.0079798930031359 0.0007461692980095 -0.0194573266289673 0.0136630645692575
1455210120051859968 0.0003023421208174 0.0517702284816581 -0.0077706557289517 0.0008591558368312 -0.0203546320309000 0.0142613079598710
1455210120067683584 0.0019737404926747 0.0519074355684810 -0.0075850644505525 0.0009338735707374 -0.0209255720427605 0.0146127914624065
1455210120084057600 0.0033983929149096 0.0520177992040628 -0.0074136216332436 0.0009762388124225 -0.0211773917574245 0.0147271067701926
1455210120100217856 0.0046046508238172 0.0521151993546615 -0.0072589141762053 0.0009942665674751 -0.0211217666146653 0.0146221674974159
1455210120116773888 0.0056451298957307 0.0522051674506298 -0.0071146909244797 0.0009957465160672 -0.0207761829837689 0.0143195776266649
1455210120131787264 0.0065619415144176 0.0522911844407560 -0.0069868650391617 0.0009875470085888 -0.0201660984698351 0.0138425498392382
1455210120147854592 0.0073756992081289 0.0523680940386510 -0.0068783035757203 0.0009767973764351 -0.0193230576970259 0.0132161576559802
1455210120164270592 0.0080812612276811 0.0524408739608912 -0.0067916687003006 0.0009716695686646 -0.0182818041854455 0.0124668740721405
1455210120180516608 0.0086774151248886 0.0524914821931685 -0.0067254240518229 0.0009798240712157 -0.0170806097981948 0.0116202479922276
1455210120196046848 0.0093135331824201 0.0523689853713582 -0.0067762435412741 0.0000682699358765 -0.0157898824337884 0.0108585703540008
1455210120211919616 0.0097449813916957 0.0523864195274848 -0.0067202344941024 0.0001167207825969 -0.0143951279592921 0.0098846465529642
1455210120227877120 0.0101118125537803 0.0523924097531679 -0.0066712418471388 0.0001858175722552 -0.0129627647056323 0.0088793703149076
1455210120244495616 0.0103853946406358 0.0522361614082936 -0.0065711060276459 0.0002677522413609 -0.0115281890766560 0.0078571388986770
1455210120259907328 0.0104827308686512 0.0515377093447957 -0.0062555564204906 0.0003417228587468 -0.0101322411853601 0.0068068968762737
1455210120278471936 0.0103337857029163 0.0499691114558352 -0.0055703637447019 0.0003748635797564 -0.0088223469159766 0.0056856393823453
1455210120292931328 0.0098334166670101 0.0473320546292557 -0.0044875713444936 0.0003281420941965 -0.0076391231554671 0.0044328788604645
1455210120307889664 0.0088178403618631 0.0435222355167007 -0.0031001633516830 0.0001614590258970 -0.0066044448607823 0.0029933141514934
1455210120326319104 0.0072538148443589 0.0384857750311919 -0.0015127840577473 -0.0001635626244040 -0.0057308948554723 0.0013329055521110
1455210120340006656 0.0053094174615294 0.0323765332938472 0.0001911487113975 -0.0006722199693928 -0.0050416107818387 -0.0005544917893029
1455210120357756160 0.0034175589144065 0.0257097865981005 0.0019421871487611 -0.0013542646344195 -0.0045827261746575 -0.0026404533486766
1455210120373000960 0.0021607343776768 0.0191855152781666 0.0036949870718719 -0.0021465888933218 -0.0044305881899538 -0.0048598770786902
1455210120388085248 0.0020038191410966 0.0133965243954175 0.0054283014630207 -0.0029332812330442 -0.0046959238484864 -0.0071275502487621
1455210120405915136 0.0030423048101314 0.0084632819115038 0.0071483216049944 -0.0035642205454458 -0.0055139509915678 -0.0093832065934779
1455210120429633536 0.0048297301375712 0.0039343957710453 0.0089042081110182 -0.0038879009272388 -0.0070117856604571 -0.0116477861015484
1455210120436859904 0.0066281255239493 -0.0009740560073044 0.0107463649767011 -0.0037936687500445 -0.0092636574483745 -0.0140422261999468
1455210120452243712 0.0076250147069122 -0.0069733166366669 0.0125824387761525 -0.0032454482955741 -0.0122488766221533 -0.0167476282670941
1455210120467910656 0.0072114294904618 -0.0145129804905982 0.0140312766158862 -0.0033221134286960 -0.0154158792361435 -0.0190027378266477
1455210120484197888 0.0046584536952715 -0.0231928583620368 0.0147916126303148 -0.0020096345562337 -0.0193412516648987 -0.0227918285166899
1455210120500076544 0.0000170343071046 -0.0325839659365571 0.0142210046488526 -0.0004086705620796 -0.0233078014417544 -0.0272026944864497
1455210120516097280 -0.0067108920184619 -0.0420093281287586 0.0115794261621302 0.0014548217157108 -0.0269865117030771 -0.0321622533394785
1455210120531734784 -0.0157624420999112 -0.0511795705142670 0.0062415526815377 0.0035655036892926 -0.0300294089770337 -0.0375166250509446
1455210120547902720 -0.0271266060675224 -0.0604364575766194 -0.0015463967900463 0.0058700707734546 -0.0321067704953791 -0.0430644178054849
1455210120564072448 -0.0398458473844442 -0.0701640759705291 -0.0104122878237053 0.0082674229289617 -0.0330423928855414 -0.0485985168251441
1455210120580467200 -0.0520028279640588 -0.0797072893952398 -0.0186498378652310 0.0106987312689369 -0.0329819196985465 -0.0539454443406199
1455210120596192512 -0.0614754220935223 -0.0870490950062856 -0.0252442674912750 0.0132928660513430 -0.0324409711708510 -0.0589829018855736
1455210120614275840 -0.0669574755953903 -0.0899731782329814 -0.0300797573063525 0.0164149227847786 -0.0321554569915250 -0.0636227780222767
1455210120627757568 -0.0684779065776819 -0.0877819423235191 -0.0333065089239178 0.0205177337419801 -0.0328122638632787 -0.0677773774018202
1455210120646281984 -0.0674111855763579 -0.0819369434796926 -0.0348742493187906 0.0258808714665248 -0.0348075218380801 -0.0713497121876636
1455210120660064768 -0.0658476833756186 -0.0750978086402484 -0.0346685268340379 0.0324354842091073 -0.0381450005820074 -0.0742610586944424
1455210120675892992 -0.0655396591615811 -0.0692946011796538 -0.0329744763857581 0.0398129116850262 -0.0425026790965667 -0.0764830455638508
1455210120695690240 -0.0672334097086678 -0.0649265689957127 -0.0305928556420479 0.0475716698410010 -0.0474095766814628 -0.0780457994017324
1455210120708052480 -0.0705654504517075 -0.0611822297188847 -0.0283651227400904 0.0554122238483259 -0.0524323594891955 -0.0790210629264432
1455210120723906816 -0.0746583281993850 -0.0571638115672982 -0.0266883111237431 0.0632304318146419 -0.0572765202753577 -0.0794911352986149
1455210120739791104 -0.0787687493249895 -0.0525201385547012 -0.0254638085738023 0.0710212705922115 -0.0617672136802337 -0.0795114502851021
1455210120756504064 -0.0824197986519428 -0.0472455256382854 -0.0243871442991862 0.0787563624915272 -0.0657660508653428 -0.0790760056840480
1455210120774270976 -0.0852095426873450 -0.0413106314537451 -0.0231864115657673 0.0863333434690264 -0.0691181054914654 -0.0781044435233105
1455210120787940864 -0.0867633518702579 -0.0346187277428276 -0.0217487413918343 0.0936024562184678 -0.0716660513413456 -0.0764691275439128
1455210120803944192 -0.0868554857767104 -0.0273564259534855 -0.0202911399133148 0.0999291498956422 -0.0737292998268333 -0.0723689638639814
1455210120820352000 -0.0857659176945191 -0.0193478121344204 -0.0190218147281081 0.1062229423017945 -0.0743876721497999 -0.0691224475007239
1455210120836286720 -0.0834191390839162 -0.0108419980077540 -0.0182844042174407 0.1119734958132222 -0.0740985762633611 -0.0650594417014187
1455210120853689088 -0.0796983895849974 -0.0019005153114616 -0.0181283814451988 0.1172059084792305 -0.0729364032758569 -0.0602327829284357
1455210120867827968 -0.0746654448247483 0.0071651159770443 -0.0184327922312295 0.1219372762724938 -0.0709955293996737 -0.0547075238052754
1455210120883800064 -0.0688136499725222 0.0157454744737527 -0.0191538883768822 0.1261422164968893 -0.0683521067071113 -0.0485677327198572
1455210120903700224 -0.0629476984442671 0.0232613799793455 -0.0203483372531720 0.1297585932945098 -0.0650459895903342 -0.0419409634399603
1455210120917137408 -0.0578063219367579 0.0294195218796926 -0.0220167571685541 0.1327228625896888 -0.0610990640381087 -0.0350111257814562
1455210120932248064 -0.0537820416380524 0.0341792612510587 -0.0238806466340339 0.1349952199428875 -0.0565532386014530 -0.0280040155677173
1455210120947872256 -0.0508971832850616 0.0374995160614791 -0.0253997559253137 0.1365514555713664 -0.0514950714003167 -0.0211505543020051
1455210120964000512 -0.0488980215899291 0.0392998507993437 -0.0260721656744079 0.1373619115742205 -0.0460505420170386 -0.0146457136004321
1455210120981206784 -0.0474849243562641 0.0396175910998687 -0.0257895811057441 0.1373903116507346 -0.0403572259962498 -0.0086203923481989
1455210120995949312 -0.0465413097278685 0.0386436589146014 -0.0249191362760802 0.1366152614305209 -0.0345347298252369 -0.0031378668013867
1455210121016793088 -0.0461210804718515 0.0365838358405393 -0.0239015525282810 0.1350510872871515 -0.0286760599215411 0.0017845607985706
1455210121030137088 -0.0462636410532641 0.0334809678777053 -0.0228343225408306 0.1327487974495284 -0.0228652990580345 0.0061461537790194
1455210121043953664 -0.0467732741183252 0.0293033583956572 -0.0214605226735942 0.1297809412897344 -0.0172007935922627 0.0099509244774751
1455210121065387520 -0.0471911919844891 0.0242190959038831 -0.0195039751642690 0.1262259579575921 -0.0117977616727792 0.0132226494551868
1455210121077097472 -0.0470385153146275 0.0186609269298972 -0.0169441397960382 0.1221609220851138 -0.0067681068618791 0.0160277389803949
1455210121093623040 -0.0459639901002599 0.0131660690386878 -0.0139920067745044 0.1176640810796967 -0.0021991054446236 0.0184807337071480
1455210121108023552 -0.0437697164267742 0.0080693496951847 -0.0110165907418908 0.1159235834842087 -0.0003768925033810 0.0147361179202210
1455210121123915008 -0.0406911428499793 0.0037631718306857 -0.0081214221599059 0.1108428787733344 0.0031126099938312 0.0169026763070910
1455210121141603072 -0.0369119052157049 0.0000157458903408 -0.0055552968386127 0.1056407631266205 0.0060118495453333 0.0190860082914951
1455210121155971840 -0.0327016899444580 -0.0034041232818325 -0.0033883839307743 0.1004382860822617 0.0083073581186645 0.0213340874772452
1455210121174152192 -0.0280654114556941 -0.0065451528131743 -0.0015503674360561 0.0953422205677211 0.0100124339768657 0.0236738046890437
1455210121188182272 -0.0227648831418444 -0.0092225634303482 0.0001094918952384 0.0904304644813178 0.0111685487456685 0.0261425459866407
1455210121204264960 -0.0166201849096277 -0.0112392856326902 0.0016290210339864 0.0857506794239205 0.0118371898770327 0.0287992597691486
1455210121219926784 -0.0097856574968481 -0.0126212043928339 0.0028596956340072 0.0813354409864838 0.0120890158628249 0.0317033931797011
1455210121236509440 -0.0026247394802535 -0.0135856921928501 0.0036501905006761 0.0772202970946100 0.0119916962968810 0.0348791886279564
1455210121252060416 0.0046118427128517 -0.0143849281275588 0.0040293728149723 0.0734471757003170 0.0115986768182825 0.0382983784504351
1455210121268687872 0.0119375080871234 -0.0151827052867713 0.0042038668324611 0.0700519118585847 0.0109473987785344 0.0418981770492653
1455210121283826176 0.0195090929651995 -0.0159898849741390 0.0043236370977601 0.0670525958140432 0.0100686189439343 0.0456176884746925
1455210121301988096 0.0274583822588486 -0.0166529451756498 0.0042830326555793 0.0644541208049203 0.0089948881775719 0.0494198304371975
1455210121316437760 0.0358127013724011 -0.0169281559330899 0.0037534560070321 0.0622652495728482 0.0077584606805484 0.0532858293452148
1455210121331944960 0.0444317770476939 -0.0166997049147416 0.0024880751890425 0.0605075786638134 0.0063844227632216 0.0571937495517545
1455210121351785984 0.0530777001143561 -0.0160877645709661 0.0005922800758648 0.0592026637677666 0.0048882235734401 0.0611000467129615
1455210121363884800 0.0615434112948481 -0.0153332622319604 -0.0015560333259024 0.0583471662628499 0.0032771841978259 0.0649381259522300
1455210121379809024 0.0697451076291019 -0.0146389028302660 -0.0035902542794929 0.0579017336588677 0.0015543139649117 0.0686321463532693
1455210121396978432 0.0776594071541409 -0.0140948108518174 -0.0054188838008986 0.0578066721672569 -0.0002741781905130 0.0721118293571128
1455210121411802368 0.0851955775046542 -0.0138784082636482 -0.0072164319765057 0.0585770404657873 -0.0000465268926893 0.0783686060605128
1455210121428130816 0.0918236525840551 -0.0139640423639471 -0.0090217429237053 0.0590164321353224 -0.0020014103064685 0.0812256124787751
1455210121443820288 0.0972755839981046 -0.0146779362070008 -0.0108739455837230 0.0596383463409907 -0.0039400873038332 0.0836564616881340
1455210121460196608 0.1014144814512703 -0.0161455928888599 -0.0126445044241480 0.0603716386423815 -0.0058082668666184 0.0855739484278852
1455210121475934464 0.1043956169017737 -0.0182364938111739 -0.0142779547944785 0.0611483422099352 -0.0075723532607531 0.0869072657351693
1455210121491943680 0.1065165549453704 -0.0205815900925915 -0.0159016415078628 0.0619245553126057 -0.0092264371883978 0.0876240103197416
1455210121510461952 0.1079833294276957 -0.0228337798883356 -0.0177715070012620 0.0626901503859293 -0.0107882797362959 0.0877324955504034
1455210121523756032 0.1088776559777333 -0.0248070629530186 -0.0201168693391422 0.0634635691838241 -0.0122908995389937 0.0872647893429864
1455210121539863040 0.1091806118525522 -0.0265132702636264 -0.0230081267182691 0.0642745315846262 -0.0137723818806407 0.0862574727500718
1455210121556588288 0.1088265466445965 -0.0280950262772423 -0.0263647409532184 0.0651418963224920 -0.0152617956654663 0.0847435858041836
1455210121571922688 0.1077563554429551 -0.0296742586268659 -0.0300301827509883 0.0660590278751157 -0.0167670660479801 0.0827559087073423
1455210121590900224 0.1059604959801790 -0.0312734567597843 -0.0338020676305094 0.0669955841063598 -0.0182742842638070 0.0803335261191082
1455210121605628928 0.1035724153227641 -0.0327308258591750 -0.0374943460873559 0.0679120898855148 -0.0197601124386463 0.0775271655640081
1455210121619842304 0.1007952848148770 -0.0338042597599421 -0.0409789524254527 0.0687752301867562 -0.0212077083775538 0.0743993665334091
1455210121636326912 0.0977914742356159 -0.0343622030769333 -0.0441761493969963 0.0695638815946627 -0.0226138970180521 0.0710177017413456
1455210121652024832 0.0946883350487426 -0.0343750481610060 -0.0470365725337083 0.0702637125399583 -0.0239864770468456 0.0674475240119650
1455210121667865088 0.0915857701612012 -0.0338515973361959 -0.0495090690784662 0.0708569858896007 -0.0253367436065227 0.0637515423323144
1455210121684025600 0.0886815075431672 -0.0327057801377678 -0.0516214590738511 0.0713186715955381 -0.0266719786201231 0.0599982717074182
1455210121699875072 0.0862955297189632 -0.0306464572650211 -0.0535369708985946 0.0716236889478139 -0.0279910458027788 0.0562739157288509
1455210121715941120 0.0848874892970755 -0.0274208689914587 -0.0556021733284034 0.0708559000118466 -0.0295815933709169 0.0560040951360354
1455210121733093120 0.0842736076976244 -0.0224272996183437 -0.0580059610691858 0.0708210693777587 -0.0307931687923079 0.0526796387940962
1455210121747840000 0.0845259431139599 -0.0156920718299573 -0.0610225099788473 0.0706197434740090 -0.0318568343367558 0.0497413624019190
1455210121765179136 0.0854362946836789 -0.0074162352322050 -0.0646329611888119 0.0702367754741059 -0.0326753082116211 0.0472952797192081
1455210121779806976 0.0867055912588213 0.0018760431043008 -0.0685852890661384 0.0696182533695910 -0.0331455981624218 0.0454104106651627
1455210121798160640 0.0881093215901352 0.0115295298963326 -0.0724943799644129 0.0686643251934195 -0.0331812441089667 0.0441084530761685
1455210121812183808 0.0896839516588919 0.0210923921343911 -0.0759833572941405 0.0672512910759620 -0.0327385685637236 0.0433667188607634
1455210121827786240 0.0916165584425717 0.0303906650596762 -0.0787950513283602 0.0652824458132982 -0.0318402336405254 0.0431198202960614
1455210121844011264 0.0939551460816229 0.0393124141249440 -0.0809005614967123 0.0627330490598360 -0.0305722244808897 0.0432543812498523
1455210121862955264 0.0964655232361380 0.0476333992902203 -0.0824655379006685 0.0596517698812442 -0.0290447038683223 0.0436143431231548
1455210121877889280 0.0988529826853249 0.0551007931480408 -0.0836875304970261 0.0561236151334048 -0.0273469001547332 0.0440295656882541
1455210121891777280 0.1009596315635127 0.0616000507299283 -0.0846964962979716 0.0522341456578065 -0.0255348794040523 0.0443496176220139
1455210121907861504 0.1027723881514777 0.0671844276057148 -0.0855629624760090 0.0480611284464222 -0.0236486860774090 0.0444600175366612
1455210121924334592 0.1043417656663903 0.0719727999431317 -0.0863195377693552 0.0436828056283026 -0.0217258929759088 0.0442827529951437
1455210121939811584 0.1056988882760647 0.0760898525720581 -0.0869726529386683 0.0391814483002574 -0.0198005026827247 0.0437715497782628
1455210121957379840 0.1068691101516428 0.0796369732974749 -0.0875266521383956 0.0346373299369750 -0.0179006659990398 0.0429066943077646
1455210121972213248 0.1078668397073581 0.0827149742485324 -0.0880012356928707 0.0301223655225023 -0.0160503167651118 0.0416903023190087
1455210121987778304 0.1087165403712015 0.0853850517335397 -0.0884129131172278 0.0257007593243001 -0.0142684494758734 0.0401416648177399
1455210122006561024 0.1094480638877312 0.0876926651312194 -0.0887685809066448 0.0214339643149900 -0.0125674008436830 0.0382928776154295
1455210122019713280 0.1102319150307951 0.0895719700228609 -0.0891671015369919 0.0172183283698731 -0.0120372295024276 0.0360510526314708
1455210122035902720 0.1107912969432527 0.0912956980743864 -0.0894266332999067 0.0134280864098765 -0.0105216968958458 0.0337272704480246
1455210122051714816 0.1112916064794714 0.0927707245884886 -0.0896577889785119 0.0099360317861340 -0.0091145245135683 0.0312337182435879
1455210122067743488 0.1117323153574426 0.0940225342650202 -0.0898711891507073 0.0067634719197480 -0.0078275701213070 0.0286168481757589
1455210122083931392 0.1121047366155521 0.0950879228775232 -0.0900663068877750 0.0039224348374479 -0.0066704741577054 0.0259252555021064
1455210122099904256 0.1124077672508721 0.0960034159342206 -0.0902282836930790 0.0014189155088854 -0.0056498587979963 0.0232091121849919
1455210122115866624 0.1126632020394376 0.0967832232548522 -0.0903578173669805 -0.0007470165332535 -0.0047681101394271 0.0205175016902690
1455210122131747072 0.1128913186407478 0.0974427541516043 -0.0904673337147893 -0.0025823182834262 -0.0040235200189987 0.0178949839278323
1455210122147904256 0.1130900824727224 0.0980021372134885 -0.0905622412314276 -0.0041021214246024 -0.0034126722186864 0.0153791447201025
1455210122166729472 0.1132665599666347 0.0984781795183409 -0.0906450290601586 -0.0053298756920742 -0.0029318079958514 0.0129996203968145
1455210122181221888 0.1134228208665129 0.0988946238222680 -0.0907137075247741 -0.0062944546237024 -0.0025762655628070 0.0107781956825478
1455210122195995136 0.1135645717741059 0.0992489523364529 -0.0907711353772440 -0.0070246496283484 -0.0023393928083591 0.0087298043044615
1455210122211766272 0.1136838245615526 0.0995452969402785 -0.0908189368291612 -0.0075445818351649 -0.0022131794243043 0.0068635899544790
1455210122227746816 0.1137696062503186 0.0997901988293929 -0.0908598885870069 -0.0078742191612716 -0.0021853538806631 0.0051852915054745
1455210122244098048 0.1137809387521287 0.0999997388935875 -0.0908819753152372 -0.0080316298258309 -0.0022259909910580 0.0037034750204663
1455210122259935744 0.1136040426984296 0.1001504707998216 -0.0907213465045188 -0.0080314300309279 -0.0022700093342462 0.0024381643111037
1455210122276023808 0.1131158035889468 0.1001288841376022 -0.0900663761147501 -0.0078804291115636 -0.0022166456908729 0.0014250353541828
1455210122292645120 0.1123145115184608 0.0997687217640158 -0.0886046925836336 -0.0075832238795338 -0.0019577000353177 0.0007072458627980
1455210122307826432 0.1113103180900106 0.0988197513038591 -0.0861921392800419 -0.0071622261822903 -0.0014166848951738 0.0003169338270456
1455210122324219392 0.1103473980031907 0.0968617501008728 -0.0828752531177913 -0.0100592859698508 0.0005557213070370 -0.0023686942369887
1455210122339721216 0.1090253485538113 0.0935491089679411 -0.0781502447136468 -0.0096445736641930 0.0016310494875544 -0.0021388056797726
1455210122356032256 0.1073031332866736 0.0883415530991618 -0.0719297469736421 -0.0094485262965849 0.0028070086554759 -0.0016989869474932
1455210122371817472 0.1048165000057326 0.0809192403003436 -0.0643096129452875 -0.0096036941315828 0.0039084168267047 -0.0011639281960798
1455210122387904512 0.1010250658474429 0.0712596087749466 -0.0557219273812843 -0.0101734683838848 0.0048001966593364 -0.0006570910942336
1455210122403813120 0.0954112008673621 0.0597170065542083 -0.0467283767122611 -0.0111451145163025 0.0054640882129006 -0.0002706806850007
1455210122420283136 0.0878619047906243 0.0469079703742010 -0.0378935390893131 -0.0124585102170435 0.0060105665884423 -0.0000349548316340
1455210122436284672 0.0788532044819809 0.0334050751970478 -0.0297938459517887 -0.0140397488092614 0.0066181258960401 0.0000770377714151
1455210122451886080 0.0692299591985441 0.0195581677452415 -0.0228807221623474 -0.0158215750333826 0.0074530830407782 0.0001141619423611
1455210122467755264 0.0597359460586312 0.0055134066627529 -0.0173111844319105 -0.0177458669447910 0.0086280816110656 0.0001133536731360
1455210122483700736 0.0506285833822777 -0.0086256122709809 -0.0128697108851357 -0.0197542130235019 0.0102055983834366 0.0000895765815705
1455210122499774720 0.0416245999597897 -0.0227032750596727 -0.0090736513608589 -0.0217837481065051 0.0122181364209452 0.0000462609361534
1455210122515790336 0.0322074616380047 -0.0365165463483230 -0.0054066518912504 -0.0237768868505726 0.0146803705798954 -0.0000085073537387
1455210122531838976 0.0220288709616040 -0.0497740532696767 -0.0015479765616689 -0.0256954894414777 0.0175840491363394 -0.0000488042060286
1455210122547748864 0.0112012773237978 -0.0621372500331487 0.0025704543213895 -0.0275249993011619 0.0208829172132095 -0.0000233606962439
1455210122563772160 0.0002056279692366 -0.0732475297033722 0.0068368644463792 -0.0292664170416938 0.0244852463933753 0.0001429545621434
1455210122580014336 -0.0105427957451773 -0.0828304322748117 0.0110294381061385 -0.0309217598832354 0.0282717873604836 0.0005341986233038
1455210122595969792 -0.0209565223122568 -0.0907407985683125 0.0148819047126853 -0.0324821600560211 0.0321345613375988 0.0012221736567763
1455210122612849152 -0.0312034168548531 -0.0969254090594127 0.0181459110543768 -0.0339279424097074 0.0360057752142406 0.0022540609645418
1455210122627700992 -0.0411915986308101 -0.1014256500679817 0.0205097502876641 -0.0361453050117562 0.0414567119877179 0.0034324861873205
1455210122643974144 -0.0510541373477683 -0.1041269999091123 0.0220759143728831 -0.0373201754703204 0.0452563128668234 0.0052076139774486
1455210122659998976 -0.0602735182134523 -0.1051041519418823 0.0227136420238641 -0.0383814600727478 0.0489695495812746 0.0073506361171267
1455210122676047872 -0.0685621497180559 -0.1044449208768236 0.0225652211349006 -0.0393817163234222 0.0525389042249402 0.0098354235000484
1455210122691736576 -0.0758519428547756 -0.1023094705561950 0.0219096275104991 -0.0403902600853015 0.0558938347086787 0.0126138719583318
1455210122707752960 -0.0822682940998004 -0.0989296472573461 0.0210229119568034 -0.0414688818070964 0.0589634468903875 0.0156171030596590
1455210122723820800 -0.0879803656517011 -0.0945712513600927 0.0200523898616663 -0.0426472446740907 0.0616944195350936 0.0187615763121073
1455210122739914496 -0.0931283363492790 -0.0895631965159069 0.0190616015142979 -0.0439078906305417 0.0640659770325110 0.0219574711997475
1455210122755862784 -0.0977896988806326 -0.0842140422608550 0.0181166902013490 -0.0451849416983965 0.0660938415924746 0.0251155832114995
1455210122772622080 -0.1020352627049608 -0.0787639405055762 0.0172942918493549 -0.0463753864652651 0.0678222391658438 0.0281513603399846
1455210122787933696 -0.1059274193679393 -0.0733090841533560 0.0166002208365728 -0.0473611946720877 0.0693065420218829 0.0309886021552023
1455210122803947008 -0.1095335695190207 -0.0678253938138754 0.0160207124056438 -0.0480379275697841 0.0705871278020165 0.0335648596739006
1455210122819895296 -0.1128883891775117 -0.0623145202630289 0.0156443947138917 -0.0483406550202712 0.0716639662920679 0.0358360676527696
1455210122835875072 -0.1159424234236196 -0.0568947227514618 0.0156598136996959 -0.0482563622991834 0.0724935730607890 0.0377766071003731
1455210122851846144 -0.1185679120655495 -0.0517564468087397 0.0162225549806968 -0.0478177046380075 0.0730180064551989 0.0393762295085702
1455210122868111104 -0.1206289649467948 -0.0469936480863951 0.0173103935091716 -0.0470847175420676 0.0732041727903240 0.0406376472298898
1455210122883734784 -0.1221349734422416 -0.0425693652436624 0.0187569925603842 -0.0461276616195630 0.0730616904711505 0.0415726110797977
1455210122900014848 -0.1233418927418191 -0.0384367075548945 0.0203438692821977 -0.0450158383170738 0.0726310843847113 0.0421924431745970
1455210122915836928 -0.1246637492287919 -0.0346928524963978 0.0219094802461419 -0.0438095650912780 0.0719573048642231 0.0424970109987902
1455210122931866624 -0.1263315526343706 -0.0317610046427040 0.0233271247687579 -0.0430570674504184 0.0734660867090986 0.0467981785811466
1455210122948185088 -0.1284511715302829 -0.0298264792677112 0.0245098216130736 -0.0417908131013605 0.0723455155800463 0.0464231839514990
1455210122963904000 -0.1307440306809742 -0.0294961228609415 0.0252468262847874 -0.0405376704284565 0.0709567242325796 0.0456893146179571
1455210122979763200 -0.1330750866707797 -0.0310949381119068 0.0253450558271508 -0.0393150753161291 0.0692468234759132 0.0446023514269130
1455210122996081408 -0.1354260135887874 -0.0346918738602126 0.0247556887466388 -0.0381293574991112 0.0671655598557037 0.0431783156869246
1455210123013813760 -0.1377160052534361 -0.0401000866008106 0.0236109682189382 -0.0369763332730335 0.0646715499380196 0.0414406895932695
1455210123028295680 -0.1397486985742370 -0.0469861159948331 0.0221622691700610 -0.0358490632290220 0.0617375024921860 0.0394288836001872
1455210123043681024 -0.1413039320906830 -0.0549500152688711 0.0206383219981054 -0.0347465017763802 0.0583643415080988 0.0372100172426578
1455210123059738112 -0.1422411864735179 -0.0635809930126958 0.0191287236458774 -0.0336757426925693 0.0545949650881405 0.0348790990895815
1455210123075800832 -0.1425444081358885 -0.0725010230363761 0.0175504629024239 -0.0326492624062653 0.0505090566991962 0.0325423076461775
1455210123091662848 -0.1423207118835269 -0.0814137262033007 0.0157212801882242 -0.0316827577765332 0.0461995449533061 0.0302925773859140
1455210123107949824 -0.1417676205003629 -0.0901447209434086 0.0135337132784152 -0.0307930205786561 0.0417503504199181 0.0281926410047189
1455210123123958784 -0.1410656896129208 -0.0986033400315975 0.0110481115449127 -0.0299918272126341 0.0372306525954199 0.0262736460097503
1455210123139919104 -0.1403039342985583 -0.1067266162671043 0.0084571775481978 -0.0292773117213095 0.0327003829058622 0.0245456215868698
1455210123155756288 -0.1394372322789458 -0.1144547037977755 0.0059624819453362 -0.0286312376399893 0.0282122634341176 0.0230103693252850
1455210123172831232 -0.1383629485541648 -0.1217900886046792 0.0037356480078520 -0.0280317181709726 0.0238061733778517 0.0216696686274647
1455210123188394496 -0.1370718620122869 -0.1288312338133080 0.0018993411052224 -0.0274789145403789 0.0195058192414985 0.0205248313389691
1455210123204049408 -0.1358023311822349 -0.1357568960889361 0.0005205998176936 -0.0270161171089678 0.0153292174398905 0.0195683520932113
1455210123219762688 -0.1350121500750079 -0.1427074131830880 -0.0003811131497738 -0.0267274174886269 0.0113100704868078 0.0187743541454398
1455210123235830272 -0.1351246186145690 -0.1497867050941241 -0.0008123165401092 -0.0277300827127338 0.0090670715041152 0.0161110203580789
1455210123251698688 -0.1364241892660985 -0.1566699494457143 -0.0006995159843384 -0.0280551964924566 0.0055729282806816 0.0154983332925390
1455210123268183808 -0.1388574155101126 -0.1633085148094718 0.0000293175915932 -0.0287491713148177 0.0024634460648661 0.0149048491439020
1455210123283798272 -0.1422443429459918 -0.1695985791735277 0.0013594714407410 -0.0297893551070847 -0.0002018763023643 0.0143033221390973
1455210123299653888 -0.1463417687252783 -0.1754674061329298 0.0031468004157996 -0.0311209473559102 -0.0023881051343904 0.0136834816921525
1455210123317106944 -0.1508623285126768 -0.1808229816673152 0.0051735838006399 -0.0326739998385679 -0.0040839280493953 0.0130456209206688
1455210123331704576 -0.1555071780448756 -0.1855478491961165 0.0072621640064871 -0.0343743726581157 -0.0053058264085809 0.0123953569967138
1455210123347719424 -0.1600375553665270 -0.1895758337268213 0.0092353065278398 -0.0361527959020866 -0.0061053620275903 0.0117397412353906
1455210123363691776 -0.1643409824180224 -0.1929112415353897 0.0108896430016950 -0.0379544652194269 -0.0065700076943058 0.0110826032387159
1455210123379799040 -0.1683658795652612 -0.1955965639364787 0.0120442853185172 -0.0397432099409012 -0.0068140817016995 0.0104191435709174
1455210123396175872 -0.1720112243772872 -0.1976414287829822 0.0125800480661578 -0.0414956004348217 -0.0069623416675117 0.0097351174011663
1455210123411776768 -0.1750909041171610 -0.1989998825874808 0.0124738306429242 -0.0431881687897925 -0.0071312465984459 0.0090122332397519
1455210123427887104 -0.1774341015427942 -0.1995765542473525 0.0117411188777556 -0.0447853903994491 -0.0074117048716387 0.0082329130208717
1455210123443783168 -0.1790149571277809 -0.1992834301529628 0.0104465219732467 -0.0462305077544405 -0.0078567106278413 0.0073824304202807
1455210123460312320 -0.1799571304027576 -0.1981233266077027 0.0087116372475021 -0.0474419599977445 -0.0084781430359736 0.0064519863465334
1455210123476057856 -0.1804104889576233 -0.1961823102198023 0.0066959751858505 -0.0483200412302162 -0.0092545201086277 0.0054444768180690
1455210123491896320 -0.1804322083445173 -0.1935780155644451 0.0045786403268250 -0.0487629931334816 -0.0101459232432383 0.0043756171312701
1455210123509157888 -0.1799840584643526 -0.1904114027723332 0.0025074811775775 -0.0486876872080380 -0.0111113351405740 0.0032664079422149
1455210123525767168 -0.1790176256717106 -0.1867634644201880 0.0005984326729751 -0.0480464548590510 -0.0121235669666623 0.0021343503949468
1455210123539669504 -0.1776067955913629 -0.1829293123579902 -0.0010612692525018 -0.0471019306858021 -0.0145375634313008 0.0033908960798750
1455210123556296448 -0.1757307398974073 -0.1786853134989407 -0.0023763385619233 -0.0453434494077179 -0.0156139593865654 0.0022487606425607
1455210123571818752 -0.1735838401189408 -0.1744683796887555 -0.0032420448288407 -0.0430908805302875 -0.0166897943922541 0.0011239651183720
1455210123589007616 -0.1713498733227999 -0.1705672732117655 -0.0035723449931600 -0.0404077150124076 -0.0177079200864895 0.0000355589131808
1455210123605823488 -0.1691716634189998 -0.1672158356711015 -0.0033445177800296 -0.0373610557566031 -0.0185916198717374 -0.0009993757116431
1455210123620221184 -0.1671003462455510 -0.1645402606708050 -0.0026159237099222 -0.0340099294090372 -0.0192635799488548 -0.0019673307323170
1455210123636365312 -0.1650816270609570 -0.1625135439898342 -0.0015026402637234 -0.0303962968606524 -0.0196644170201350 -0.0028558789343746
1455210123652179456 -0.1630112643774747 -0.1609752462333182 -0.0001214130446983 -0.0265446226896869 -0.0197668855919785 -0.0036507930134030
1455210123667927296 -0.1607718261736203 -0.1596708150103848 0.0014893089228495 -0.0224702586782667 -0.0195817728005437 -0.0043338220000470
1455210123683795200 -0.1582954279630140 -0.1583841122224892 0.0033716867173011 -0.0181905744583842 -0.0191494105166136 -0.0048818396743666
1455210123699812608 -0.1556251278507755 -0.1570668366190571 0.0055882611769631 -0.0137340979964657 -0.0185173580776313 -0.0052691234449840
1455210123715992064 -0.1528520348708915 -0.1558658642881376 0.0081058025641568 -0.0091449771328469 -0.0177178683250303 -0.0054746373877759
1455210123731897856 -0.1500117726860045 -0.1549707924425914 0.0107624662603103 -0.0044849082720035 -0.0167621448244243 -0.0054893444411201
1455210123747758848 -0.1470037204176327 -0.1544547293823632 0.0133078879685963 0.0001671876995549 -0.0156567897459789 -0.0053170112472244
1455210123764952064 -0.1436638642165924 -0.1541985589516524 0.0154980187764448 0.0047189959879117 -0.0144269971334662 -0.0049677366623519
1455210123779958528 -0.1398947300281769 -0.1539709107326823 0.0172030141896609 0.0090737504174965 -0.0131258305845718 -0.0044512597769575
1455210123796329984 -0.1357565060760567 -0.1535678187949538 0.0184174313057493 0.0131434535877969 -0.0118212587649063 -0.0037768568611904
1455210123812073984 -0.1314394488856717 -0.1528438310283255 0.0192596966554951 0.0168629756237288 -0.0105695587807891 -0.0029580424427040
1455210123827818752 -0.1271682786707503 -0.1517056310413823 0.0199493818376099 0.0202001944575390 -0.0093958730293170 -0.0020180049773506
1455210123844646912 -0.1232040813326358 -0.1502262510399397 0.0207011389775993 0.0229656599347486 -0.0084737639632201 -0.0034669348771053
1455210123861274368 -0.1194355583635709 -0.1479498609197956 0.0216821045263075 0.0255578559183050 -0.0074230956375860 -0.0023919615002689
1455210123875904000 -0.1158242198925108 -0.1449748340200059 0.0228968517714498 0.0278077844305139 -0.0063986117100197 -0.0013041728660164
1455210123892073984 -0.1122221063798447 -0.1412912457313143 0.0242884343745469 0.0297218501784354 -0.0053775572092407 -0.0002290581455222
1455210123907994624 -0.1085887243688361 -0.1369808801620557 0.0257992975955476 0.0312896956625501 -0.0043371541182965 0.0008128753042545
1455210123923810048 -0.1050264406849313 -0.1321945397895663 0.0273683033374411 0.0324926390449689 -0.0032554400527389 0.0017957823746292
1455210123939791872 -0.1016790551335529 -0.1271472323668922 0.0289110115493216 0.0333132229318870 -0.0021190476334028 0.0026814034670888
1455210123956167936 -0.0986362954935691 -0.1221080818720992 0.0303135269531010 0.0337362520424665 -0.0009350753471314 0.0034190170567962
1455210123972086528 -0.0959003415426244 -0.1173641122421705 0.0314343830341492 0.0337417754534681 0.0002611932796651 0.0039509212951412
1455210123987887104 -0.0934010782772072 -0.1131843013881080 0.0321703045536863 0.0332956627510044 0.0014094076149263 0.0042208010691805
1455210124005914368 -0.0910958415545765 -0.1098547287044513 0.0325193074718742 0.0323450996232195 0.0024360610942894 0.0041797614665771
1455210124020430848 -0.0890432871260349 -0.1077123814327677 0.0326266526605877 0.0308286762601059 0.0032703700720127 0.0037847108023773
1455210124037248768 -0.0873791649912199 -0.1070942243887977 0.0327618146805648 0.0287052554631029 0.0038612905681021 0.0029900433579292
1455210124054334976 -0.0863113585253625 -0.1081458139512383 0.0331574943413657 0.0259824232661581 0.0041916405582716 0.0017450049571956
1455210124068397056 -0.0860923075819959 -0.1107188946147991 0.0338863139293029 0.0227195442503746 0.0042822878380595 0.0000091484208547
1455210124083792896 -0.0868917845421702 -0.1144280545434830 0.0348606348368093 0.0190067084705731 0.0041846220080136 -0.0022200916320269
1455210124099779072 -0.0886290806969244 -0.1188233506124454 0.0359761068242399 0.0149432246195166 0.0039655586399095 -0.0048863875122054
1455210124115889664 -0.0909351204931532 -0.1235365864955728 0.0371984431950764 0.0106310535986105 0.0036898893762116 -0.0078743356048926
1455210124133171456 -0.0933726142314909 -0.1282559927787795 0.0385191622857777 0.0061766585094873 0.0034055876488944 -0.0110284210718520
1455210124147931648 -0.0956687731015921 -0.1328057826942200 0.0398756191516143 0.0030754450966296 0.0035153894948219 -0.0179624237132359
1455210124164116736 -0.0976581715817408 -0.1368104212767905 0.0411765080713132 -0.0013297631416088 0.0032683482029448 -0.0209589757317961
1455210124180403968 -0.0993676625123040 -0.1403075869501058 0.0423424469172991 -0.0055459322214152 0.0030391419948330 -0.0236753907646537
1455210124196012800 -0.1008254899594126 -0.1433475011799559 0.0433553394040298 -0.0094747361108831 0.0028255315886392 -0.0260212107012507
1455210124212539392 -0.1020728608994837 -0.1459785614944731 0.0442328501814103 -0.0130353289632884 0.0026300505068691 -0.0279373947368224
1455210124228544000 -0.1031449889146216 -0.1482420796011042 0.0449901474986635 -0.0161702186102723 0.0024555334921310 -0.0293925309186926
1455210124243910912 -0.1040741297154086 -0.1501857659541680 0.0456266283330956 -0.0188479720722859 0.0023001026440733 -0.0303774089664145
1455210124262853888 -0.1048762523823929 -0.1518558642999290 0.0461472532658736 -0.0210599668365770 0.0021584038157430 -0.0308981900458920
1455210124276888576 -0.1055603119471375 -0.1532972856654639 0.0465882228289499 -0.0228129607724361 0.0020253758835534 -0.0309723491970592
1455210124295415808 -0.1061478280077057 -0.1545424674018512 0.0469814154316621 -0.0241227449908551 0.0018982436469290 -0.0306283939763222
1455210124308344576 -0.1066420858631447 -0.1556315306586629 0.0473354262189666 -0.0250108769428792 0.0017778620720862 -0.0299044779279121
1455210124323794688 -0.1070576776913212 -0.1565726627663537 0.0476351345205451 -0.0255047466220583 0.0016692169003217 -0.0288446066014595
1455210124340179712 -0.1074095724158297 -0.1573730498160398 0.0478834386199544 -0.0256369179360765 0.0015781737560351 -0.0274959383516235
1455210124356336128 -0.1077231315420676 -0.1580505051375582 0.0481065510760746 -0.0254427831886812 0.0015077411571829 -0.0259083759330349
1455210124373190144 -0.1080071893225731 -0.1586270839842333 0.0483233757789060 -0.0249571601043480 0.0014581881021826 -0.0241338502341880
1455210124388405504 -0.1082485353730124 -0.1591231366297765 0.0485339627409125 -0.0242130973567446 0.0014289288185380 -0.0222240706382372
1455210124403992064 -0.1084463915815618 -0.1595372439128593 0.0487168041475799 -0.0232453916198972 0.0014185969592436 -0.0202286266490525
1455210124421021952 -0.1086146962268543 -0.1598825816649236 0.0488592636114018 -0.0220945965862687 0.0014242597852629 -0.0181939543249978
1455210124436355584 -0.1087755849988855 -0.1601628003861641 0.0489540962905442 -0.0208071981925392 0.0014426787630865 -0.0161622245679483
1455210124451929600 -0.1089313562462441 -0.1604730410980261 0.0490233657825794 -0.0172214957716980 0.0009186459559830 -0.0148276747220712
1455210124467890688 -0.1090184811002854 -0.1606169256852849 0.0490341499933355 -0.0157921225052143 0.0009453818088827 -0.0129111797982451
1455210124483832832 -0.1089368708276678 -0.1606183704500289 0.0489191487340436 -0.0143294920257189 0.0009399961872091 -0.0111106410631004
1455210124501281792 -0.1086059551552529 -0.1603800088530412 0.0485886056179996 -0.0128312068661610 0.0008408042652880 -0.0094806113554144
1455210124515881216 -0.1080256750776817 -0.1598367898326511 0.0479980052206485 -0.0112834359351635 0.0005646659551213 -0.0080894607321174
1455210124531778816 -0.1072930451080418 -0.1590490481976607 0.0472040269757077 -0.0096775817192985 0.0000332089323403 -0.0070076934312030
1455210124548288512 -0.1065674495381969 -0.1581802160277461 0.0463001504442110 -0.0080228980339334 -0.0007989558688323 -0.0062992843218378
1455210124563803648 -0.1061075432527781 -0.1574666792924881 0.0453354467531722 -0.0063424248834999 -0.0019117841856362 -0.0060299294147877
1455210124580733952 -0.1061641517217296 -0.1571944805312795 0.0443755410028438 -0.0046502896860171 -0.0031761678587833 -0.0062744620261371
1455210124596233216 -0.1068203250087674 -0.1576743123294898 0.0436062326692189 -0.0029279733744118 -0.0043340095600103 -0.0071032208254847
1455210124613073664 -0.1079083971101033 -0.1591974392968958 0.0433068345730284 -0.0011200800537022 -0.0050460734684655 -0.0085593940868503
1455210124629482240 -0.1090650187611080 -0.1619877617731158 0.0436395068348550 0.0008494136912894 -0.0049953061637911 -0.0106541375103368
1455210124644717056 -0.1099269936464384 -0.1661870802766237 0.0444548328308510 0.0030516446627116 -0.0039750883636654 -0.0133793763140548
1455210124660078336 -0.1102667306597921 -0.1718032955589926 0.0454112499696593 0.0055260564283704 -0.0019109974945146 -0.0167110694690359
1455210124676174592 -0.1100289705235715 -0.1786313239247968 0.0462105687522927 0.0082596163171025 0.0011682519879682 -0.0205971021739607
1455210124692046336 -0.1093563388671083 -0.1862587344705925 0.0467182336314991 0.0111815550778390 0.0051688823281395 -0.0249491370456835
1455210124707962624 -0.1085331021146102 -0.1941262435904055 0.0469312330504372 0.0141742398323111 0.0099533171120717 -0.0296528774945080
1455210124724083712 -0.1079767209408492 -0.2016438855653960 0.0468691650428417 0.0170903775777629 0.0153455496223777 -0.0345941086365660
1455210124739710976 -0.1081350253801189 -0.2082924240440865 0.0465026021018996 0.0197749589811224 0.0211365115835421 -0.0396815011412974
1455210124758176256 -0.1093194622405988 -0.2137909785293957 0.0457461042594097 0.0245011550055973 0.0254160752778031 -0.0453208785309160
1455210124774892544 -0.1114370844049128 -0.2176365899119931 0.0445336293582315 0.0263745785134630 0.0313257891719498 -0.0505024568544375
1455210124788339456 -0.1141851991259244 -0.2198187655800432 0.0428469198075258 0.0277827731597363 0.0369750398683968 -0.0556167725645264
1455210124803812864 -0.1171057515649521 -0.2203902450460254 0.0407768611824120 0.0287650245524527 0.0421863633331789 -0.0605541163342228
1455210124820074240 -0.1198040816685513 -0.2195482194889920 0.0384807201833234 0.0293958997652622 0.0468266834102426 -0.0651938432598888
1455210124835956224 -0.1220956398971816 -0.2175316478937090 0.0360998308599665 0.0297581439775570 0.0508198001257677 -0.0694365349354786
1455210124852114432 -0.1239120285195568 -0.2145280457844537 0.0336992817309771 0.0299273675181687 0.0541471309514532 -0.0732317050062588
1455210124868056576 -0.1251472879369428 -0.2106245662691706 0.0312700629867692 0.0299760632875857 0.0568312964350628 -0.0765809122171483
1455210124883792128 -0.1256135113077939 -0.2058334987008186 0.0287599718131908 0.0299893750829210 0.0589108665572877 -0.0795157835853040
1455210124899786240 -0.1251385572043553 -0.2000944889821032 0.0260919589964614 0.0300753755689278 0.0604172440241232 -0.0820719226630613
1455210124917297664 -0.1237021688983812 -0.1933307032482382 0.0231695279647013 0.0303595332834468 0.0613613402330967 -0.0842791563684480
1455210124932163328 -0.1214237364831655 -0.1855329122166968 0.0199582523939402 0.0309653317080561 0.0617360848990579 -0.0861665532530452
1455210124948451072 -0.1184779831512836 -0.1768283956311202 0.0165463581249112 0.0319897333273785 0.0615344013956872 -0.0877697121864665
1455210124963757568 -0.1149582437495431 -0.1674557271220069 0.0131295472578815 0.0334824841873216 0.0607745636756473 -0.0891307427226431
1455210124979761408 -0.1108415589990832 -0.1576854692362045 0.0099074773194188 0.0354366275089006 0.0595151427791629 -0.0902920202457316
1455210124996359936 -0.1060957001183572 -0.1477601733772289 0.0070588153946034 0.0377898204238071 0.0578476882511469 -0.0912898901827759
1455210125011932672 -0.1007856844083640 -0.1378884256074596 0.0047596565819154 0.0404311071359095 0.0558742863290572 -0.0921541535218582
1455210125028506368 -0.0950445660634755 -0.1282340446361014 0.0031830464701765 0.0432080538979115 0.0536887454043786 -0.0929110767352941
1455210125043769600 -0.0890146094418710 -0.1189023576228647 0.0024841764537837 0.0459360857068060 0.0513724740728321 -0.0935813952857568
1455210125059905024 -0.0829535666055797 -0.1100872008935082 0.0027700775449189 0.0500414896352863 0.0494512131964755 -0.0930366348326089
1455210125076337408 -0.0770185490168760 -0.1016033010946386 0.0040872630927481 0.0520910853962010 0.0470839714130604 -0.0935385904209747
1455210125091776256 -0.0715887463816475 -0.0936862428317349 0.0063677195529895 0.0535606775391995 0.0447766948756497 -0.0939313233869015
1455210125107824128 -0.0669122863667957 -0.0864448410711472 0.0094531570543512 0.0543451892794118 0.0425721596078811 -0.0941973404357020
1455210125123830784 -0.0630982635198030 -0.0799958988852828 0.0131442034204510 0.0543777525998849 0.0405111822627353 -0.0943313216145460
1455210125139809536 -0.0601222305001180 -0.0744591447373894 0.0172664130336141 0.0536222432243993 0.0386386195902559 -0.0943429096124840
1455210125156861184 -0.0578690219383866 -0.0699626570856384 0.0216928646443850 0.0520700570237917 0.0369995908600628 -0.0942535457998049
1455210125174039040 -0.0562548252279130 -0.0666099543595183 0.0263483810173254 0.0497411367035122 0.0356286771022370 -0.0940881509615026
1455210125187780352 -0.0552961579818748 -0.0644481894752099 0.0311765030064858 0.0466874893179902 0.0345388275728462 -0.0938673426850399
1455210125204077824 -0.0550729267132600 -0.0634582304074884 0.0360904716535860 0.0429971721984503 0.0337164853617187 -0.0936064039667625
1455210125220235008 -0.0555920103326936 -0.0634854553690349 0.0409333985854354 0.0387956189906380 0.0331268925049277 -0.0933192808436079
1455210125241137152 -0.0566976306168278 -0.0642292186344498 0.0454849806341813 0.0342409410576861 0.0327268559950909 -0.0930177274249377
1455210125251845888 -0.0581152002502989 -0.0653521746000403 0.0495616884525392 0.0295118414831405 0.0324771086192130 -0.0927011887376439
1455210125267678208 -0.0595853984129490 -0.0665881457468219 0.0530677500119169 0.0247906413566394 0.0323467637480766 -0.0923479718812018
1455210125284102144 -0.0609527391908420 -0.0677581419177198 0.0559651228577330 0.0202480947335559 0.0323102496002461 -0.0919191148530968
1455210125299670016 -0.0622063711573347 -0.0687214462851836 0.0582124347620869 0.0160334981510849 0.0323436259111278 -0.0913748217701643
1455210125316011520 -0.0634810889613878 -0.0693952739688664 0.0597728589929775 0.0122700588927426 0.0324256794417446 -0.0906923646205248
1455210125331839232 -0.0649583724941757 -0.0698070348718745 0.0606797151756369 0.0090552783037875 0.0325424107276173 -0.0898721711972154
1455210125347780352 -0.0667507093060859 -0.0700769847914806 0.0610689443428819 0.0064645639092015 0.0326882238815207 -0.0889277591099597
1455210125364178176 -0.0688603530487585 -0.0704353534245585 0.0611507417040359 0.0063064459488326 0.0311130055620010 -0.0947009646366634
1455210125379748608 -0.0709680207420976 -0.0707920490782849 0.0610361168743606 0.0050895337067350 0.0312990176155129 -0.0935164878990813
1455210125395860224 -0.0729287674989517 -0.0711487820272041 0.0607812948323214 0.0045468485207061 0.0314757227980455 -0.0921786029864382
1455210125412169984 -0.0746225702603386 -0.0713261634836881 0.0603435191654982 0.0046168248919092 0.0316115586729381 -0.0906454290434227
1455210125427707648 -0.0760572011593122 -0.0711910096622566 0.0596964449247760 0.0052136431729416 0.0316777829888751 -0.0888733161369651
1455210125443968256 -0.0773245442689982 -0.0707825636769614 0.0588883169723446 0.0062411564834773 0.0316557251103294 -0.0868291417835860
1455210125460421120 -0.0785329841320865 -0.0702587215410867 0.0580069524634255 0.0075999305578208 0.0315375162844577 -0.0844989585074318
1455210125476109056 -0.0797431513014332 -0.0697921914339504 0.0571113712896165 0.0091902915724168 0.0313241633303191 -0.0818899551670431
1455210125492300800 -0.0809270469730206 -0.0694913277083133 0.0562220717433909 0.0109138049856663 0.0310250027520199 -0.0790249448289952
1455210125508464896 -0.0819708341266215 -0.0694241917681417 0.0553732000218334 0.0126757370138808 0.0306568393991937 -0.0759308840950997
1455210125525344256 -0.0827636614033158 -0.0696496029173418 0.0546439615033957 0.0143917276089549 0.0302400545933259 -0.0726281292631098
1455210125540054016 -0.0832651313196024 -0.0702266036463663 0.0541515575087321 0.0159954983152343 0.0297915780699570 -0.0691296953269287
1455210125555915520 -0.0835270238711809 -0.0712173412414859 0.0539986942617912 0.0174399791920525 0.0293189008320561 -0.0654523449965548
1455210125571799040 -0.0836898328808026 -0.0726522746088977 0.0542250251450662 0.0186915055181231 0.0288187076651802 -0.0616308034290013
1455210125588650240 -0.0839037835380431 -0.0745060839481814 0.0547755856787041 0.0197269708159059 0.0282796383245722 -0.0577238996204764
1455210125605430784 -0.0842652614629922 -0.0766715247410896 0.0555009346579618 0.0205386607824900 0.0276880702357186 -0.0538069584005378
1455210125619911168 -0.0847453173037857 -0.0789851536022411 0.0562359677020560 0.0211401562517272 0.0270330701698090 -0.0499534859898854
1455210125635789824 -0.0851974370038602 -0.0812973500035529 0.0568742948420707 0.0215670229495465 0.0263062300497635 -0.0462152177896717
1455210125652768000 -0.0854399732320550 -0.0835325637311150 0.0573951203299830 0.0218716099798647 0.0254966594744621 -0.0426108443029482
1455210125667984128 -0.0854198704656894 -0.0858043060174137 0.0579058366203732 0.0217093447863384 0.0259041493438321 -0.0382110530342368
1455210125683753984 -0.0850509895787596 -0.0879382354397930 0.0584013863891624 0.0219394488649978 0.0248889702272450 -0.0348273687490969
1455210125699798272 -0.0845552831153889 -0.0900615238348201 0.0589712314929683 0.0221963782735937 0.0237702062763976 -0.0315206534263404
1455210125715833856 -0.0841075424256490 -0.0921923882783972 0.0596349957226724 0.0225061768531568 0.0225675365832347 -0.0282872906496296
1455210125732034304 -0.0837852324887936 -0.0943393720317583 0.0603817524930735 0.0228913803720816 0.0213058870455992 -0.0251426353201837
1455210125747698688 -0.0835344231870532 -0.0964727639043068 0.0611468332852496 0.0233754415355614 0.0200032010782867 -0.0221123458476939
1455210125763778048 -0.0832249738861851 -0.0985091840374823 0.0617992958401925 0.0239795884657814 0.0186649268420151 -0.0192186718277518
1455210125779792640 -0.0827795120192327 -0.1004033204235451 0.0622496577581944 0.0247136223024876 0.0172877238360212 -0.0164708899076716
1455210125796407552 -0.0822240530662310 -0.1021823416091534 0.0625245973695513 0.0255647813726217 0.0158662749285409 -0.0138688259215870
1455210125812221184 -0.0816327250856269 -0.1039292318851495 0.0627002664755510 0.0264946026737159 0.0143957162491873 -0.0114154231833929
1455210125827716352 -0.0810354241051275 -0.1056499642673186 0.0627974308341221 0.0274473337253781 0.0128688052513830 -0.0091244997682139
1455210125843746304 -0.0803989633547260 -0.1072324269557218 0.0627585002232268 0.0283638613444007 0.0112729507292801 -0.0070160312064703
1455210125861754624 -0.0796839439411622 -0.1085408082315437 0.0625035400686598 0.0291945908555920 0.0095921480316920 -0.0051045935100842
1455210125875945728 -0.0788869262994318 -0.1095257361361744 0.0620111463355225 0.0299100595392879 0.0078110465180892 -0.0033922655822553
1455210125892058624 -0.0780381170492776 -0.1102521256753969 0.0613146915580551 0.0305075565745567 0.0059172606237302 -0.0018711153113427
1455210125907804928 -0.0771812285040293 -0.1108222239994513 0.0604634639444849 0.0310084348987595 0.0039021659162258 -0.0005312912363490
1455210125923710976 -0.0763635666630757 -0.1112915120639003 0.0594632671184268 0.0314454783488020 0.0017619383066439 0.0006319079322942
1455210125940137984 -0.0756195247644723 -0.1116508573490130 0.0582895681096821 0.0318490855656702 -0.0004992433406915 0.0016158633495648
1455210125956131328 -0.0750028762831647 -0.1118964478178707 0.0569960178965047 0.0322395197679782 -0.0028667001226689 0.0024133205440367
1455210125972040448 -0.0746112593222398 -0.1121699851849931 0.0557619755495323 0.0318476694275732 -0.0054627175479319 0.0083381409195966
1455210125987643904 -0.0744230813208238 -0.1124737393791192 0.0547968397351359 0.0322320131221328 -0.0079745066738528 0.0087563614263625
1455210126004820736 -0.0744976081940365 -0.1130304848598191 0.0543091414153752 0.0326097868273071 -0.0105241986783966 0.0090081284466643
1455210126019821312 -0.0748233892891837 -0.1139102610526427 0.0543350816167546 0.0329710013286574 -0.0130834622297114 0.0091289565499898
1455210126036167680 -0.0753983641468473 -0.1151149331198081 0.0547899250476557 0.0332970206411345 -0.0156089750493470 0.0091613820693306
1455210126051973376 -0.0762314714659576 -0.1166216907893067 0.0555685698045069 0.0335556149467151 -0.0180432519850558 0.0091457710652087
1455210126067849472 -0.0773345662557982 -0.1184336384505581 0.0566359507033518 0.0337003973808766 -0.0203252847787285 0.0091147463566099
1455210126083801088 -0.0786860883627564 -0.1205704150371823 0.0579996759837284 0.0336761904697248 -0.0224018573642353 0.0090923091472804
1455210126101753600 -0.0801948094222082 -0.1230392458221968 0.0596845909342639 0.0334250105832316 -0.0242336212920243 0.0090948535630647
1455210126116973824 -0.0817164383389351 -0.1258327232441624 0.0617120186174337 0.0328890513086160 -0.0257982581980525 0.0091315504386556
1455210126131852032 -0.0831140734535514 -0.1288663564788661 0.0640480588604461 0.0320171104845159 -0.0270921001395264 0.0092057053553474
1455210126147920640 -0.0843324620590725 -0.1319932836929526 0.0665984614579252 0.0307787381996876 -0.0281270316832182 0.0093181577825547
1455210126164085504 -0.0854216552521775 -0.1350537076031540 0.0692461612598422 0.0291727729678919 -0.0289225613707411 0.0094706358124257
1455210126181894656 -0.0864671883941602 -0.1378993270632023 0.0719083045370043 0.0272210282362853 -0.0294983798757610 0.0096669597688578
1455210126195994112 -0.0875167531342093 -0.1404264407108128 0.0745348394837772 0.0249554209845599 -0.0298733109802568 0.0099117181362421
1455210126212035840 -0.0885925012447550 -0.1425567314601163 0.0770624059282991 0.0224103658528886 -0.0300687921835710 0.0102065706377120
1455210126227759104 -0.0897278656081764 -0.1442557493506204 0.0794360210426099 0.0196206570436193 -0.0301108936792908 0.0105462103597192
1455210126244048896 -0.0909911781925562 -0.1455382061876891 0.0816521204374383 0.0166188819521486 -0.0300259520101148 0.0109189016138151
1455210126260514304 -0.0924599098857206 -0.1464484491505609 0.0837661739609699 0.0134336095940094 -0.0298307709147171 0.0113125023982733
1455210126276116480 -0.0941689962707000 -0.1470533280464299 0.0858164714461852 0.0094454512080164 -0.0310409686104546 0.0147219849519218
1455210126292334848 -0.0960539562010655 -0.1472778136903322 0.0878039914939446 0.0059582304182127 -0.0306254423332411 0.0151386484032998
1455210126308773120 -0.0979913457712487 -0.1471162214998468 0.0896465761174811 0.0023434708592511 -0.0300992881561773 0.0155585554751915
1455210126323716352 -0.0998465585839011 -0.1465030131220639 0.0912296560302296 -0.0013780534274587 -0.0294779206089176 0.0159697708060667
1455210126339764992 -0.1015334923075919 -0.1453627274186509 0.0924411255185385 -0.0051650337980844 -0.0287856889427124 0.0163587409838108
1455210126357958656 -0.1029931956190882 -0.1436266559591167 0.0931921283551332 -0.0089506858915444 -0.0280515204597324 0.0167152383003161
1455210126373249280 -0.1041962151049320 -0.1412430334893084 0.0934374888053761 -0.0126504792805706 -0.0273118364913627 0.0170316074692636
1455210126389110016 -0.1051222254333229 -0.1381624370210680 0.0931352341763626 -0.0161710052343317 -0.0266139272453312 0.0172967640443927
1455210126404072960 -0.1057465421324015 -0.1343555273301123 0.0922499753840711 -0.0194063078936937 -0.0260118480949706 0.0174935136332158
1455210126420439808 -0.1060084198738430 -0.1298559212169598 0.0907875485124041 -0.0222310810274079 -0.0255553368287284 0.0176017252492269
1455210126437360128 -0.1057932158146905 -0.1248288282903249 0.0888002197896879 -0.0245121657573815 -0.0252789760739700 0.0176002842617510
1455210126451970816 -0.1049872751538067 -0.1195563572226033 0.0864276652313660 -0.0261355603823290 -0.0251960399605014 0.0174655880477855
1455210126468018432 -0.1035640477965645 -0.1143471267893463 0.0838537251610832 -0.0270234297975029 -0.0252969207104529 0.0171706684019503
1455210126483787264 -0.1016233991312947 -0.1094416506017085 0.0812881039391308 -0.0271271112072503 -0.0255519109414785 0.0166901439955453
1455210126499912960 -0.0993295329496355 -0.1049678054341483 0.0788970628163445 -0.0264112564796440 -0.0259198125251692 0.0160102697155526
1455210126517184256 -0.0968260800106578 -0.1009499418639525 0.0767471577300907 -0.0248509516183972 -0.0263597277950913 0.0151385872308791
1455210126531926272 -0.0942004200250313 -0.0973179693222600 0.0747956521329773 -0.0224477305410707 -0.0268392108890620 0.0141051143261034
1455210126547874048 -0.0915031141178236 -0.0939829306965146 0.0728874462874631 -0.0192517354278026 -0.0273328211709512 0.0129521922847973
1455210126563932416 -0.0887592801286783 -0.0909251982822740 0.0709206182431893 -0.0153712827861182 -0.0278154596974861 0.0117212891691964
1455210126580118016 -0.0859308839711220 -0.0882632541646413 0.0689181332380751 -0.0111916740951358 -0.0291848377394626 0.0133758199435767
1455210126597268224 -0.0831006329853985 -0.0859853125023277 0.0670579592776034 -0.0064297606081772 -0.0295805694062757 0.0120922695652247
1455210126613061888 -0.0802584715117602 -0.0841879579914673 0.0654950304557419 -0.0014925462341398 -0.0299220545744489 0.0108370019101295
1455210126627944704 -0.0774676949255450 -0.0828299503459956 0.0642690205515558 0.0034568347878769 -0.0302179175507853 0.0096518908240044
1455210126643802880 -0.0747895737762231 -0.0817929155675351 0.0632796231515916 0.0082747284942103 -0.0304806599134652 0.0085751648905790
1455210126659931648 -0.0722402169543566 -0.0809343402946671 0.0623228570785173 0.0128391770428402 -0.0307179626472491 0.0076340240680837
1455210126675796992 -0.0697867745463286 -0.0801545722644647 0.0612106585633602 0.0170524315473090 -0.0309256187584264 0.0068453952293625
1455210126691788288 -0.0673962048644646 -0.0794404663960352 0.0598608115342119 0.0208423556847438 -0.0310857317844590 0.0062229534824915
1455210126707828736 -0.0650484044948170 -0.0788163946336918 0.0582790780930898 0.0241607972060173 -0.0311714106615065 0.0057826357103939
1455210126723722496 -0.0627366253025818 -0.0783100232438309 0.0565112173036977 0.0269780797973979 -0.0311536949216288 0.0055426180617364
1455210126739857152 -0.0605043701532288 -0.0779558815346711 0.0546260410433866 0.0292720233899640 -0.0310057128505186 0.0055190337976452
1455210126756182272 -0.0584206986274285 -0.0777912222245664 0.0527226120960252 0.0310152431713089 -0.0307046028880439 0.0057211906010479
1455210126772166912 -0.0565512271365048 -0.0778393217096602 0.0509185453589226 0.0321709643583939 -0.0302319048869656 0.0061496955639948
1455210126787878656 -0.0549284562098954 -0.0781255740781696 0.0493235682626453 0.0327038557683876 -0.0295706479392739 0.0067984699307522
1455210126803753216 -0.0535874233205980 -0.0786985802175879 0.0480222750940489 0.0325987487424267 -0.0287000038570962 0.0076580559355790
1455210126819709440 -0.0525413397839384 -0.0796067390283651 0.0470559948472412 0.0318760379754111 -0.0275924444413888 0.0087162299117492
1455210126836046336 -0.0517422514863708 -0.0807961750144112 0.0463826871620650 0.0305955775482325 -0.0262182484896338 0.0099553843453237
1455210126852916480 -0.0511008852794077 -0.0820958259955303 0.0458383740585476 0.0288486002148208 -0.0245556996196782 0.0113494614582009
1455210126867740160 -0.0505524140691938 -0.0832683066387363 0.0451957428815449 0.0267445033824872 -0.0225992533427212 0.0128645168053396
1455210126884183040 -0.0500004322326297 -0.0841433960344877 0.0443163802329084 0.0222832656123474 -0.0214475858087811 0.0133085779409083
1455210126899830016 -0.0495557282748978 -0.0846662928839573 0.0432535844585966 0.0198116899705244 -0.0189536064243489 0.0149521980747769
1455210126915888384 -0.0492402238783411 -0.0849069668586122 0.0421483240372204 0.0173141688821483 -0.0162408525503204 0.0165992690062452
1455210126931719168 -0.0491479694204026 -0.0849897847546539 0.0411418273811547 0.0148726172126108 -0.0133561129521326 0.0181993050246430
1455210126947736320 -0.0493258138883450 -0.0849909751973513 0.0402929446110873 0.0125529751236225 -0.0103535503186243 0.0196926219112451
1455210126967674624 -0.0497469906973762 -0.0849432173414735 0.0395961501776105 0.0104123048692217 -0.0072900360187245 0.0210170381897164
1455210126980071424 -0.0503394522510418 -0.0848385866766308 0.0390246980525807 0.0085019186159551 -0.0042209847413513 0.0221181200074083
1455210126996234240 -0.0510164974714326 -0.0846592016340828 0.0385675976649095 0.0068642734314308 -0.0012005391666780 0.0229584829849034
1455210127012133376 -0.0517206958549286 -0.0843905887999511 0.0382207885669892 0.0055249112635914 0.0017172737582290 0.0235229797606040
1455210127027866624 -0.0524308541476004 -0.0840284551312239 0.0380369593451313 0.0044841449915309 0.0044815035430288 0.0238179122848603
1455210127043783680 -0.0531746605734404 -0.0836649527515184 0.0381487297844374 0.0037156692889741 0.0070494344965602 0.0238636059332358
1455210127060175872 -0.0539870015543475 -0.0834707427613497 0.0387278871379876 0.0031750398757616 0.0093899587184161 0.0236845697277055
1455210127076012800 -0.0549189625579311 -0.0836105852311864 0.0398716154372425 0.0028134000393827 0.0114839139393306 0.0233039349154831
1455210127092509952 -0.0560092212920035 -0.0841689448927751 0.0415554055500705 0.0025889386686818 0.0133257081805934 0.0227447897473542
1455210127108321280 -0.0572747727151999 -0.0851444884535114 0.0436689002519072 0.0024689338615248 0.0149248940367391 0.0220339691153548
1455210127124731136 -0.0586937199122712 -0.0865288620605773 0.0460720955834407 0.0024229203508978 0.0163002962888818 0.0212046706576244
1455210127139812352 -0.0601906835090049 -0.0883216792510425 0.0486921472194550 0.0024156348137785 0.0174687495096243 0.0202997757945906
1455210127156047104 -0.0616232448816268 -0.0905427000048804 0.0515377731450300 0.0024081712736131 0.0184362367264156 0.0193752269334908
1455210127174068224 -0.0628044591112223 -0.0932179918554000 0.0546355372290818 0.0023656129657948 0.0191968503329191 0.0184972618098965
1455210127188365312 -0.0635442524411281 -0.0963589572146860 0.0579350775504244 0.0032727173481727 0.0185735863570220 0.0191760915003899
1455210127205296896 -0.0639438628064586 -0.1000245870796927 0.0613780452311114 0.0030936923298196 0.0188889795084166 0.0185675914964924
1455210127219919616 -0.0639783673980334 -0.1041861762636168 0.0648176862099427 0.0028333703220177 0.0189795334870753 0.0181382697625823
1455210127236490240 -0.0637010168714065 -0.1087343441819924 0.0680946655188302 0.0024971467161103 0.0188586172016955 0.0178821902181118
1455210127252688384 -0.0631591351657539 -0.1134427474931901 0.0710218441619771 0.0020987912804060 0.0185460003324512 0.0177749909789684
1455210127267846144 -0.0624252804227829 -0.1180198368705182 0.0734543174271787 0.0016532788331615 0.0180587428341789 0.0177859319667531
1455210127283780096 -0.0615749470407527 -0.1222572315456790 0.0753529416250302 0.0011689097008613 0.0174038558955898 0.0178883224293400
1455210127300914432 -0.0607055553516170 -0.1260968177476418 0.0767987685446799 0.0006437842553155 0.0165815292128537 0.0180648834596904
1455210127316095232 -0.0599303360931962 -0.1295938610297589 0.0779117046301596 0.0000690865512982 0.0155976030779776 0.0183066953851596
1455210127332322816 -0.0593103438250793 -0.1327997815367117 0.0787387740973747 -0.0005634304142480 0.0144728126159245 0.0186074346948745
1455210127347755008 -0.0588359197875799 -0.1356991152975566 0.0792487391366177 -0.0012540686154032 0.0132388026474813 0.0189578573112980
1455210127363955200 -0.0584562822715998 -0.1382275342905289 0.0793548369189544 -0.0019928070448132 0.0119253327755546 0.0193442131730606
1455210127379941632 -0.0581252862209432 -0.1403100727622373 0.0790162595767511 -0.0027610924029595 0.0105517486805838 0.0197514926973403
1455210127395793408 -0.0578284553462052 -0.1419328610667034 0.0782738302230979 -0.0035345322992834 0.0091270748000746 0.0201679788830326
1455210127412663552 -0.0575624598151413 -0.1431754405667661 0.0772212599336528 -0.0042856827869289 0.0076554155597011 0.0205876999372280
1455210127427689472 -0.0573297824839058 -0.1441644436777892 0.0759580063019644 -0.0049875784867893 0.0061424694706657 0.0210090126986909
1455210127443768832 -0.0571478009971635 -0.1449727686433098 0.0745401684151285 -0.0056161374776677 0.0046008888188141 0.0214293610145525
1455210127460547840 -0.0570387869576971 -0.1456088218686747 0.0729844189760871 -0.0061472567062434 0.0030526305113320 0.0218389503542714
1455210127476034048 -0.0570404770476734 -0.1460498748340877 0.0712955425566289 -0.0065510575029773 0.0015247516639670 0.0222171295448155
1455210127492798976 -0.0571219639831767 -0.1462898567930607 0.0694543959780655 -0.0066866300696766 0.0016040367301092 0.0240195488476316
1455210127509272832 -0.0573973270463290 -0.1463421258366835 0.0675099378395554 -0.0067107569896273 0.0001827293613740 0.0242459846418787
1455210127523797760 -0.0578411491478488 -0.1462670096010442 0.0654878954430548 -0.0064822149022215 -0.0011593102597968 0.0243592973118929
1455210127539980288 -0.0585293825568712 -0.1461845906116856 0.0634663061622786 -0.0059801736422017 -0.0023984387228619 0.0243469385132514
1455210127556136704 -0.0595054145912848 -0.1462244594173981 0.0615573302342372 -0.0052061838221856 -0.0035039582523763 0.0242024737202025
1455210127571963392 -0.0607370643915018 -0.1464744541870323 0.0598540946348185 -0.0041779640277682 -0.0044453785169323 0.0239231243581693
1455210127590800640 -0.0621369884284264 -0.1469291541626410 0.0583917276629573 -0.0029247335892082 -0.0051990954275622 0.0235115298144062
1455210127604768000 -0.0636212295356643 -0.1474879144295651 0.0571462561307556 -0.0014894134454110 -0.0057488855864027 0.0229776056563531
1455210127619638784 -0.0651346700502159 -0.1480339947333721 0.0560687857084463 0.0000720523070958 -0.0060824557654793 0.0223383485241108
1455210127635772928 -0.0666363909301229 -0.1484778213458964 0.0551399827928868 0.0017008009126201 -0.0061902147629270 0.0216164144423359
1455210127652142592 -0.0681248955835580 -0.1487888249489402 0.0543602870108249 0.0033466257877262 -0.0060698868273371 0.0208363554244234
1455210127667693312 -0.0696448535046684 -0.1489314075807281 0.0537051182183451 0.0049687484996459 -0.0057313258444382 0.0200181344316645
1455210127683715072 -0.0712542131397157 -0.1488497521783037 0.0531110895826508 0.0065277655499661 -0.0051951458301049 0.0191712919973840
1455210127699715584 -0.0729716129939222 -0.1484900371702592 0.0525226144726866 0.0079798191553183 -0.0044877690003566 0.0182956146310525
1455210127716257536 -0.0747522560565928 -0.1477967421140694 0.0519345054415790 0.0092793637065819 -0.0036394468357090 0.0173883049609548
1455210127732865024 -0.0764976396006479 -0.1467669543672434 0.0514272393181375 0.0103875595631429 -0.0026862948728034 0.0164522818055094
1455210127749830912 -0.0781297482288646 -0.1454510520655130 0.0511436726005491 0.0112772578343713 -0.0016716686821796 0.0154999427513834
1455210127764361728 -0.0796119536055526 -0.1439552370323544 0.0511936548059029 0.0119334669781550 -0.0006429708896779 0.0145494246844118
1455210127780281856 -0.0809434440790146 -0.1423452170837596 0.0515684843518634 0.0123490488497663 0.0003556771615000 0.0136161946662342
1455210127796703488 -0.0820863251333372 -0.1406682248589255 0.0521247287395470 0.0129113506967861 0.0017213630688151 0.0145160785773510
1455210127811741184 -0.0831117280086582 -0.1388591614385172 0.0527605223183886 0.0128321638830057 0.0025748129887938 0.0136218192642149
1455210127827684096 -0.0839336652499168 -0.1369190505596079 0.0533704021360193 0.0125006926359102 0.0033382333142213 0.0127316832607205
1455210127843786240 -0.0845390143774516 -0.1348417859902732 0.0539690129679130 0.0119224204117265 0.0040071806849879 0.0118354609669643
1455210127866615808 -0.0849599390070308 -0.1327029953753972 0.0546460299577357 0.0111176078985828 0.0045791822931164 0.0109291302862140
1455210127877680896 -0.0852756097510046 -0.1307007967313648 0.0555426382273222 0.0101214190679841 0.0050589300650387 0.0100115558342388
1455210127891766784 -0.0855531861924689 -0.1290414434555326 0.0567539961345563 0.0089754174092819 0.0054642485904432 0.0090767714424486
1455210127909967872 -0.0858300178586078 -0.1278162068713759 0.0582854050896630 0.0077171283678880 0.0058246152736793 0.0081098813664480
1455210127924045056 -0.0861139847048891 -0.1269488494369396 0.0600827174246024 0.0063765944134493 0.0061724259623914 0.0070908102949832
1455210127939756544 -0.0863580972973713 -0.1262568376582275 0.0620703395263027 0.0049832633734459 0.0065335181291245 0.0060040016215511
1455210127955949568 -0.0865008945619251 -0.1255786193544396 0.0641780848262604 0.0035769887405323 0.0069201585421778 0.0048484587240149
1455210127971795968 -0.0865043095894777 -0.1248307662441994 0.0663375977306824 0.0022121429258751 0.0073288542482870 0.0036415323139500
1455210127988166656 -0.0863492278583220 -0.1240051708854775 0.0685078250784222 0.0009464877953177 0.0077466328942610 0.0024138451547845
1455210128004882688 -0.0860343321734704 -0.1230947638033467 0.0706764502888555 -0.0001802261554567 0.0081631172526892 0.0011986615783588
1455210128021477376 -0.0855551697145246 -0.1220635570889653 0.0728194720966345 -0.0011593353076105 0.0085781273408370 0.0000231419586814
1455210128036419072 -0.0849393331329747 -0.1208769754048792 0.0749178798967103 -0.0020071009498901 0.0089993120282057 -0.0010918914610139
1455210128051884288 -0.0842589515963786 -0.1195375123554211 0.0770011252452702 -0.0027468131861541 0.0094352773801609 -0.0021250253167809
1455210128070810624 -0.0836013670937704 -0.1180890010013586 0.0791637867191483 -0.0033948038181986 0.0098912153501341 -0.0030475863936855
1455210128083898624 -0.0830185317715743 -0.1165840973215252 0.0815038755555009 -0.0039570986079494 0.0103674640940843 -0.0038238042819055
1455210128100468992 -0.0824576437029244 -0.1150703049609333 0.0839892015057546 -0.0039527798936321 0.0108654654760196 -0.0050849086520012
1455210128117246464 -0.0819163890137602 -0.1135283503713937 0.0865760056548905 -0.0043511810256295 0.0113669204797053 -0.0054758726555117
1455210128131654656 -0.0813341217242251 -0.1119718284996247 0.0891015303378877 -0.0046853440398554 0.0118705470504220 -0.0056573556542771
1455210128149745408 -0.0807434175802746 -0.1103938950149412 0.0915351500905138 -0.0049800473497386 0.0123699380349549 -0.0056384628969818
1455210128168404224 -0.0801257172628180 -0.1087865820670462 0.0939251437618111 -0.0052633276863409 0.0128566492839193 -0.0054329591922269
1455210128181254656 -0.0793930389583341 -0.1071368922589651 0.0963027271033871 -0.0055575622919579 0.0133169115275394 -0.0050508567088607
1455210128195724032 -0.0784454461272156 -0.1054630773360236 0.0986713511786497 -0.0058716256159249 0.0137312980493408 -0.0044978612757299
1455210128211804672 -0.0772718398372355 -0.1038380385917327 0.1010361363940068 -0.0061990146515129 0.0140792558849451 -0.0037823734798639
1455210128227815680 -0.0759863883319742 -0.1023676758379829 0.1034151641797493 -0.0065233064506268 0.0143455697295713 -0.0029239965793450
1455210128243882496 -0.0747366666585956 -0.1011626767959302 0.1058058120481203 -0.0068249241181732 0.0145238867290360 -0.0019559235315718
1455210128260203008 -0.0736115900924982 -0.1003278118964624 0.1081869975493868 -0.0070824390360417 0.0146178185387981 -0.0009169372536617
1455210128275859968 -0.0725674486481963 -0.0999200156816496 0.1105428946634702 -0.0072717927441483 0.0146403460983988 0.0001615222217051
1455210128292055552 -0.0714775004123885 -0.0999003517545775 0.1128312013252168 -0.0073712198258261 0.0146086674686622 0.0012640855732485
1455210128307842304 -0.0702570913386430 -0.1001078565889903 0.1149783293829521 -0.0073705490106412 0.0145360088443623 0.0023917732285552
1455210128323706880 -0.0689582515726373 -0.1003837227740825 0.1169141526444375 -0.0072769861607811 0.0144273758342818 0.0035547448344930
1455210128339750144 -0.0677731241101763 -0.1006501602037294 0.1186287121536375 -0.0071144356273013 0.0142848129766036 0.0047614437448983
1455210128356320512 -0.0669547334495439 -0.1008891223193364 0.1201462061307607 -0.0069185486792234 0.0141159238185360 0.0060096292583811
1455210128371705856 -0.0666944663910650 -0.1010741837428968 0.1214663582762244 -0.0067281487409655 0.0139357196927694 0.0072851414236609
1455210128387842304 -0.0670522145198373 -0.1011460666346222 0.1226031155781351 -0.0065742923497502 0.0137602754099549 0.0085691653969193
1455210128403829760 -0.0679385251520602 -0.1010012116912276 0.1235562598258528 -0.0063943613046742 0.0162417856465026 0.0069641025288137
1455210128420077824 -0.0693324536921829 -0.1005704654398795 0.1243739121521569 -0.0063519728363560 0.0160801208925016 0.0082336441378970
1455210128436122880 -0.0711011367868595 -0.0997899016585477 0.1250400002525527 -0.0063573072615203 0.0158957253439146 0.0094998984170397
1455210128451610368 -0.0731656309434758 -0.0987418578496552 0.1255832458876076 -0.0063844972338940 0.0156550615991498 0.0107713742850405
1455210128468508672 -0.0754706303883632 -0.0976068800930192 0.1260780193344466 -0.0063913643420504 0.0153242206906276 0.0120532828792816
1455210128483783680 -0.0779493647523148 -0.0965255731705623 0.1265829835846640 -0.0063250272002213 0.0148758434456747 0.0133453572006495
1455210128499729408 -0.0805252375210607 -0.0955319234474223 0.1271155409916361 -0.0061308407076738 0.0142921568829449 0.0146435651850992
1455210128516018176 -0.0831128455282893 -0.0945788070321340 0.1276721481670647 -0.0057632961349322 0.0135621228636057 0.0159417100885735
1455210128531675136 -0.0856442033534470 -0.0936142460141866 0.1282757553877834 -0.0051954129071394 0.0126746696493472 0.0172320277998424
1455210128547666432 -0.0880670180149573 -0.0926024400258059 0.1289450386505422 -0.0044219942614625 0.0116135323487592 0.0185055380871044
1455210128564006656 -0.0903341495757376 -0.0915071715773235 0.1296346531345847 -0.0034570351090935 0.0103575810549050 0.0197517565757920
1455210128579626240 -0.0924253354212063 -0.0902558698877689 0.1301979079534681 -0.0023318947401237 0.0088864617307812 0.0209573323218390
1455210128595757824 -0.0943486389631506 -0.0887766427547253 0.1304501788756288 -0.0010958200782079 0.0071879760021275 0.0221056142764882
1455210128612956160 -0.0960981255031046 -0.0870727790025187 0.1302682525607494 0.0001883913475831 0.0052647972723834 0.0231788021672432
1455210128627752704 -0.0976537766718699 -0.0852308070781799 0.1296440716871960 0.0014565270178678 0.0031400741035943 0.0241619519848212
1455210128644363776 -0.0989910573155496 -0.0833686479916163 0.1286336686860516 0.0026538273316866 0.0008579708209704 0.0250459006275503
1455210128659978240 -0.1001389465990911 -0.0815819247318599 0.1273196808767977 0.0037370301679964 -0.0015211516237895 0.0258284118081064
1455210128675779584 -0.1011867687810779 -0.0799623327220308 0.1257818608615141 0.0046697030868986 -0.0039274006085477 0.0265121577129381
1455210128691805696 -0.1022156090169777 -0.0786134143393630 0.1240929581702868 0.0054182167083766 -0.0062855869043808 0.0270997257900008
1455210128707813888 -0.1031895810977088 -0.0775939088686884 0.1223200074216429 0.0040165496207115 -0.0082209295133529 0.0271459538991758
1455210128723803904 -0.1040630335494906 -0.0768925994658772 0.1205100655338339 0.0043060370009699 -0.0102612358578275 0.0275371302225289
1455210128739826688 -0.1046395820208965 -0.0764273319154258 0.1187474917243895 0.0043351361032460 -0.0120603518352954 0.0278334767837435
1455210128756060416 -0.1047617806029217 -0.0761030317316059 0.1171355992970009 0.0041088700257328 -0.0135984838274576 0.0280490142218229
1455210128772588544 -0.1043551366762426 -0.0758529572833380 0.1157506074538289 0.0036648024511066 -0.0148840181891649 0.0282029081782459
1455210128787742976 -0.1034680072271599 -0.0756372685792222 0.1145753725150412 0.0030721270814996 -0.0159463228210068 0.0283082491942894
1455210128803986432 -0.1022711849724343 -0.0754507918820548 0.1134897772763663 0.0024191021287685 -0.0168240041919170 0.0283605483454433
1455210128819613952 -0.1009656932572309 -0.0752794505660154 0.1123146989565013 0.0017974316662980 -0.0175522247551941 0.0283328488236781
1455210128835848192 -0.0996929512743121 -0.0750974582859942 0.1109241380967809 0.0012910699598473 -0.0181551295081455 0.0281818216571643
1455210128851887616 -0.0984972738368412 -0.0748839294910629 0.1092646684871071 0.0009695880564173 -0.0186464108629921 0.0278617177666129
1455210128867695360 -0.0973105245466030 -0.0746422213326030 0.1073397754701049 0.0008838458739733 -0.0190333449761219 0.0273397463578545
1455210128883722752 -0.0960224654266711 -0.0743929186403921 0.1051880276100056 0.0010611689165653 -0.0193201659739736 0.0266057527704393
1455210128899695360 -0.0945425974919472 -0.0741142674974945 0.1028681355176360 0.0015015499919774 -0.0195110363676039 0.0256724252507104
1455210128916501248 -0.0928397031134873 -0.0737814729844063 0.1004867310840128 0.0021801603594426 -0.0196131952424130 0.0245687853590860
1455210128932887296 -0.0909572597634474 -0.0734724902794972 0.0981829593579888 0.0030584573405781 -0.0196372919706969 0.0233318086877589
1455210128947697920 -0.0889715697116165 -0.0733948753585303 0.0961242710168008 0.0040983483427881 -0.0195941372920016 0.0219989957630052
1455210128963822592 -0.0869741214591792 -0.0737671637023942 0.0944645079261967 0.0052682048672311 -0.0194921412263499 0.0206025803933184
1455210128979622656 -0.0850282644515634 -0.0746184072781852 0.0932497087273918 0.0065352501499475 -0.0193380095609448 0.0191671731854146
1455210128995889152 -0.0831802366650904 -0.0757346009252770 0.0923853892592365 0.0078496818288101 -0.0191405076834289 0.0177121188779586
1455210129012092160 -0.0814674115255100 -0.0768419110693959 0.0917043557557210 0.0102705628723090 -0.0206088231320238 0.0160300704560830
1455210129030625280 -0.0799400421666630 -0.0777303284043907 0.0911252004328720 0.0114488177108562 -0.0203641566068991 0.0145954798444692
1455210129044253696 -0.0786226685161470 -0.0784647104661297 0.0906432727230182 0.0124437314037116 -0.0201090158668697 0.0132031773220333
1455210129059654400 -0.0775677693216886 -0.0791828049366034 0.0903082157632409 0.0132023472744757 -0.0198432160895469 0.0118645865584727
1455210129076231168 -0.0768130039603140 -0.0800014059754106 0.0901546248557789 0.0136868279079113 -0.0195701806435218 0.0105747860432138
1455210129091944704 -0.0763044396610881 -0.0809783781471296 0.0902002323114317 0.0138680967129252 -0.0193057125621135 0.0093176088955989
1455210129107900160 -0.0758950457606852 -0.0820913039203056 0.0904137234786715 0.0137282062865712 -0.0190758825586693 0.0080793557306271
1455210129123633152 -0.0754226661007198 -0.0832215914983450 0.0906859235208138 0.0132671560498294 -0.0189076949542023 0.0068595972957610
1455210129141202176 -0.0747809371982892 -0.0841773380781884 0.0908573487056208 0.0125043598651700 -0.0188209140829262 0.0056718426382266
1455210129162341632 -0.0739499263788316 -0.0847684675876672 0.0907428671721911 0.0114701910730146 -0.0188254382157582 0.0045357359637126
1455210129177573888 -0.0729814334574736 -0.0848789150324037 0.0902182360138670 0.0101957801556347 -0.0189237616622730 0.0034687106029394
1455210129189924352 -0.0719659951677883 -0.0844988026853465 0.0892523189996796 0.0087105242043465 -0.0191153661183552 0.0024831355811815
1455210129204021760 -0.0710081648215470 -0.0837065609286630 0.0879080412107001 0.0070465672572926 -0.0193991237447924 0.0015881410361035
1455210129219692544 -0.0701972089650098 -0.0826357378349770 0.0863220226157713 0.0052412468593251 -0.0197735473834483 0.0007912889365729
1455210129235811072 -0.0695645496202637 -0.0814428460063894 0.0846299366981148 0.0033337763776684 -0.0202355241311103 0.0000980533379293
1455210129251660288 -0.0690708307455450 -0.0802728890390484 0.0829529663701983 0.0013642414658281 -0.0207776934509732 -0.0004884515170367
1455210129267814400 -0.0686016851057162 -0.0792568194742875 0.0813685528819613 -0.0006213800531144 -0.0213857936231015 -0.0009668407825501
1455210129283817728 -0.0680311917010098 -0.0784921038372176 0.0798781801138809 -0.0025694747355498 -0.0220385181965192 -0.0013369842874378
1455210129299823872 -0.0672805673241491 -0.0780135442758523 0.0784273902646559 -0.0044291976078231 -0.0227122394053339 -0.0015999404597597
1455210129316108032 -0.0663197698892482 -0.0778350114740568 0.0769386791103619 -0.0050101938354616 -0.0254375760515566 -0.0026976799102698
1455210129331683328 -0.0652507784051670 -0.0778979027488016 0.0754297420988792 -0.0066171463694271 -0.0260908834120081 -0.0027548186634534
1455210129347697152 -0.0641020410454350 -0.0782820634067841 0.0739263867120393 -0.0080928229449565 -0.0267009237235291 -0.0027159232304806
1455210129363827456 -0.0629073181087677 -0.0790028846961882 0.0724345458866572 -0.0094385872784172 -0.0272409538699118 -0.0025867494811825
1455210129380032000 -0.0616849015187617 -0.0799818666990315 0.0709075171032008 -0.0106535081530175 -0.0276840411810380 -0.0023720344604595
1455210129395985664 -0.0604625533797037 -0.0811443679231236 0.0693193566987900 -0.0117362318976133 -0.0280062402065292 -0.0020753203043267
1455210129411802880 -0.0593068901379360 -0.0825198861639972 0.0677175140866023 -0.0126854772992505 -0.0281870254899270 -0.0017025306471765
1455210129427729920 -0.0583157078707069 -0.0842374905798693 0.0662089071315451 -0.0134999645408397 -0.0282093655361216 -0.0012668329228073
1455210129443770368 -0.0575965220020705 -0.0863633892687520 0.0648774598981176 -0.0141801929488310 -0.0280598257170945 -0.0007901295217271
1455210129462079232 -0.0572271579287175 -0.0888283513312273 0.0637220861227586 -0.0147303927907308 -0.0277310626414126 -0.0003005114068346
1455210129475895552 -0.0572129402670925 -0.0914797382527180 0.0627023199190670 -0.0151597060971944 -0.0272280906807741 0.0001709420556152
1455210129491954944 -0.0575222235352774 -0.0941699801542987 0.0617894737522157 -0.0154807568558369 -0.0265726735031083 0.0005925369974142
1455210129511588608 -0.0580998747312072 -0.0968270074262081 0.0609886548122545 -0.0157047194624726 -0.0257998006595925 0.0009343991046597
1455210129523664384 -0.0589058027221903 -0.0994476563926893 0.0603151323174267 -0.0158361090507331 -0.0249488139955637 0.0011715058224214
1455210129540070912 -0.0598935519321407 -0.1020576664239021 0.0597922363230022 -0.0158714614377559 -0.0240552930517587 0.0012879110162135
1455210129556116992 -0.0610344462908188 -0.1046913997288556 0.0594565606740369 -0.0158021538461142 -0.0231440502317087 0.0012804886734186
1455210129571639296 -0.0623423254047894 -0.1073697688445411 0.0593292643531516 -0.0156169856763962 -0.0222224846059177 0.0011585785348766
1455210129589819136 -0.0638341805477420 -0.1100836964250251 0.0593921257684665 -0.0153052254297258 -0.0212808071554866 0.0009389698285469
1455210129604728064 -0.0654952732796199 -0.1128012826496949 0.0596001394951445 -0.0148616396515130 -0.0203026054222134 0.0006407695472478
1455210129619799040 -0.0672368694673221 -0.1154934692002378 0.0598660216940224 -0.0146437905077321 -0.0201013424323083 -0.0004029523761846
1455210129635752960 -0.0690725680781815 -0.1181003510593087 0.0601337001157944 -0.0139572219384721 -0.0190144647163974 -0.0007953422403749
1455210129652371968 -0.0709489141277301 -0.1205917973920042 0.0603285379457944 -0.0131776185162983 -0.0178567386126500 -0.0012005111809948
1455210129668535040 -0.0728460800702298 -0.1228974424175230 0.0603926683717524 -0.0123362448909854 -0.0166151929429501 -0.0015987333215318
1455210129683963136 -0.0747299049636755 -0.1249798421722688 0.0602913992321153 -0.0114715291731902 -0.0152835611537697 -0.0019762923415337
1455210129699694336 -0.0766121778712188 -0.1268923426988878 0.0600423863794666 -0.0106219364630863 -0.0138682304139164 -0.0023255822453635
1455210129715845120 -0.0785377487951922 -0.1287616526359498 0.0597185068036199 -0.0098170289035861 -0.0123847645830755 -0.0026447803373484
1455210129732710400 -0.0805479589883571 -0.1307219125354986 0.0594058549626850 -0.0090716110371980 -0.0108476104384388 -0.0029371330777688
1455210129748300032 -0.0826688762013296 -0.1328068403824139 0.0591353621036393 -0.0083882978806494 -0.0092633181612398 -0.0032081861457490
1455210129763750656 -0.0849302339218994 -0.1349208843140775 0.0588776572305462 -0.0077679796063409 -0.0076343444107404 -0.0034612093207808
1455210129780190208 -0.0873486612948197 -0.1369042449008451 0.0585412512157621 -0.0072183643795790 -0.0059674392979818 -0.0036940686300131
1455210129796595456 -0.0898724530750782 -0.1386311854808843 0.0580039941492957 -0.0067518126273292 -0.0042765137293321 -0.0038989044112171
1455210129811934976 -0.0924004547784765 -0.1400429161810718 0.0571798292847484 -0.0063761603188687 -0.0025795561828448 -0.0040633167765481
1455210129828263168 -0.0948465396226289 -0.1410996578587842 0.0560151899631503 -0.0060901459479255 -0.0008961396108614 -0.0041722049857156
1455210129843731456 -0.0971432410512262 -0.1417442413495202 0.0544722961028052 -0.0058880758303421 0.0007536649286651 -0.0042105237353162
1455210129863766528 -0.0992610913735045 -0.1419503432813038 0.0525261294399920 -0.0057663413828105 0.0023512913390867 -0.0041672031138397
1455210129875960832 -0.1012087495680554 -0.1417495991509301 0.0501841622934993 -0.0057229004173610 0.0038823154649384 -0.0040380757847967
1455210129891862272 -0.1030397776430410 -0.1412356419705502 0.0475251050203261 -0.0057494042937483 0.0053385907584528 -0.0038257418700052
